onset	duration	sample	trial_type	response_time	stim_file	item_name	category	serialpos	recalled	list	test	answer	stimulation	stim_list	stim_duration	anode_label	cathode_label	amplitude	pulse_freq	n_pulses	pulse_width	experiment	session	subject
0.0	11.153	26790	SESS_START	n/a	n/a	n/a	n/a	-999	0	-999	[0, 0, 0]	n/a	0	0	0	n/a	n/a	0.0	0	0	0	catFR2	0	R1074M
11.153	10.0	32366	COUNTDOWN_START	n/a	n/a	n/a	n/a	-999	0	-999	[0, 0, 0]	n/a	0	0	0	n/a	n/a	0.0	0	0	0	catFR2	0	R1074M
21.581	3.941	37580	COUNTDOWN_END	n/a	n/a	n/a	n/a	-999	0	-999	[0, 0, 0]	n/a	0	0	0	n/a	n/a	0.0	0	0	0	catFR2	0	R1074M
25.522	1.6	39550	PRACTICE_WORD	n/a	n/a	TONGUE	n/a	-999	0	1	[0, 0, 0]	n/a	0	0	0	n/a	n/a	0.0	0	0	0	catFR2	0	R1074M
28.023	1.6	40801	PRACTICE_WORD	n/a	n/a	ATTIC	n/a	-999	0	2	[0, 0, 0]	n/a	0	0	0	n/a	n/a	0.0	0	0	0	catFR2	0	R1074M
30.59	1.6	42084	PRACTICE_WORD	n/a	n/a	RING	n/a	-999	0	3	[0, 0, 0]	n/a	0	0	0	n/a	n/a	0.0	0	0	0	catFR2	0	R1074M
33.124	1.6	43351	PRACTICE_WORD	n/a	n/a	FLOOD	n/a	-999	0	4	[0, 0, 0]	n/a	0	0	0	n/a	n/a	0.0	0	0	0	catFR2	0	R1074M
35.541	1.6	44560	PRACTICE_WORD	n/a	n/a	CAMEL	n/a	-999	0	5	[0, 0, 0]	n/a	0	0	0	n/a	n/a	0.0	0	0	0	catFR2	0	R1074M
38.141	1.6	45859	PRACTICE_WORD	n/a	n/a	COTTON	n/a	-999	0	6	[0, 0, 0]	n/a	0	0	0	n/a	n/a	0.0	0	0	0	catFR2	0	R1074M
40.659	1.6	47118	PRACTICE_WORD	n/a	n/a	IRON	n/a	-999	0	7	[0, 0, 0]	n/a	0	0	0	n/a	n/a	0.0	0	0	0	catFR2	0	R1074M
43.259	1.6	48418	PRACTICE_WORD	n/a	n/a	WATCH	n/a	-999	0	8	[0, 0, 0]	n/a	0	0	0	n/a	n/a	0.0	0	0	0	catFR2	0	R1074M
45.693	1.6	49635	PRACTICE_WORD	n/a	n/a	BEAM	n/a	-999	0	9	[0, 0, 0]	n/a	0	0	0	n/a	n/a	0.0	0	0	0	catFR2	0	R1074M
48.127	1.6	50852	PRACTICE_WORD	n/a	n/a	WAGON	n/a	-999	0	10	[0, 0, 0]	n/a	0	0	0	n/a	n/a	0.0	0	0	0	catFR2	0	R1074M
50.727	1.6	52152	PRACTICE_WORD	n/a	n/a	CHEST	n/a	-999	0	11	[0, 0, 0]	n/a	0	0	0	n/a	n/a	0.0	0	0	0	catFR2	0	R1074M
53.211	1.6	53394	PRACTICE_WORD	n/a	n/a	RHINO	n/a	-999	0	12	[0, 0, 0]	n/a	0	0	0	n/a	n/a	0.0	0	0	0	catFR2	0	R1074M
54.828	0.0	54202	PRACTICE_DISTRACT_START	n/a	n/a	n/a	n/a	-999	0	-999	[0, 0, 0]	n/a	0	0	0	n/a	n/a	0.0	0	0	0	catFR2	0	R1074M
54.828	0.017	54202	START	n/a	n/a	n/a	n/a	-999	0	-1	[-999, -999, -999]	n/a	0	-999	0	n/a	n/a	0.0	0	0	0	catFR2	0	R1074M
54.845	5.734	54211	PROB	5.712	n/a	n/a	n/a	-999	0	-1	[2, 3, 7]	12	0	-999	0	n/a	n/a	0.0	0	0	0	catFR2	0	R1074M
60.579	8.518	57078	PROB	8.482	n/a	n/a	n/a	-999	0	-1	[3, 3, 5]	11	0	-999	0	n/a	n/a	0.0	0	0	0	catFR2	0	R1074M
69.097	17.3	61337	PROB	17.3	n/a	n/a	n/a	-999	0	-1	[6, 8, 1]	15	0	-999	0	n/a	n/a	0.0	0	0	0	catFR2	0	R1074M
86.397	0.004	69986	STOP	n/a	n/a	n/a	n/a	-999	0	-1	[-999, -999, -999]	n/a	0	-999	0	n/a	n/a	0.0	0	0	0	catFR2	0	R1074M
86.401	0.537	69988	PRACTICE_DISTRACT_END	n/a	n/a	n/a	n/a	-999	0	-999	[0, 0, 0]	n/a	0	0	0	n/a	n/a	0.0	0	0	0	catFR2	0	R1074M
86.938	30.513	70257	PRACTICE_REC_START	n/a	n/a	n/a	n/a	-999	0	-999	[0, 0, 0]	n/a	0	0	0	n/a	n/a	0.0	0	0	0	catFR2	0	R1074M
117.451	10.459	85512	PRACTICE_REC_END	n/a	n/a	n/a	n/a	-999	0	-999	[0, 0, 0]	n/a	0	0	0	n/a	n/a	0.0	0	0	0	catFR2	0	R1074M
127.91	0.0	90741	TRIAL	n/a	n/a	n/a	n/a	-999	0	1	[0, 0, 0]	n/a	0	1	0	n/a	n/a	0.0	0	0	0	catFR2	0	R1074M
127.91	10.0	90741	COUNTDOWN_START	n/a	n/a	n/a	n/a	-999	0	1	[0, 0, 0]	n/a	0	1	0	n/a	n/a	0.0	0	0	0	catFR2	0	R1074M
138.338	0.006	95955	COUNTDOWN_END	n/a	n/a	n/a	n/a	-999	0	1	[0, 0, 0]	n/a	0	1	0	n/a	n/a	0.0	0	0	0	catFR2	0	R1074M
138.344	1.6	95958	ORIENT	n/a	n/a	n/a	n/a	-999	0	1	[0, 0, 0]	n/a	0	1	0	n/a	n/a	0.0	0	0	0	catFR2	0	R1074M
141.718	4.6	97645	STIM_ON	n/a	n/a	n/a	n/a	-999	0	1	[0, 0, 0]	n/a	1	1	4600	LW1	LW2	1000.0	50	230	300	catFR2	0	R1074M
141.929	1.6	97750	WORD	n/a	wordpools/wordpool_categorized_EN.txt	LILY	Flowers	1	0	1	[0, 0, 0]	n/a	1	1	4600	LW1	LW2	1000.0	50	230	300	catFR2	0	R1074M
144.429	1.6	99000	WORD	n/a	wordpools/wordpool_categorized_EN.txt	ORCHID	Flowers	2	0	1	[0, 0, 0]	n/a	1	1	4600	LW1	LW2	1000.0	50	230	300	catFR2	0	R1074M
146.829	1.6	100200	WORD	n/a	wordpools/wordpool_categorized_EN.txt	RADIO	Electronics	3	0	1	[0, 0, 0]	n/a	0	1	0	n/a	n/a	0.0	0	0	0	catFR2	0	R1074M
149.413	1.6	101492	WORD	n/a	wordpools/wordpool_categorized_EN.txt	SPEAKER	Electronics	4	0	1	[0, 0, 0]	n/a	0	1	0	n/a	n/a	0.0	0	0	0	catFR2	0	R1074M
151.721	4.6	102646	STIM_ON	n/a	n/a	n/a	n/a	-999	0	1	[0, 0, 0]	n/a	1	1	4600	LW1	LW2	1000.0	50	230	300	catFR2	0	R1074M
151.931	1.6	102751	WORD	n/a	wordpools/wordpool_categorized_EN.txt	GOAT	FarmAnimals	5	0	1	[0, 0, 0]	n/a	1	1	4600	LW1	LW2	1000.0	50	230	300	catFR2	0	R1074M
154.381	1.6	103976	WORD	n/a	wordpools/wordpool_categorized_EN.txt	ROOSTER	FarmAnimals	6	0	1	[0, 0, 0]	n/a	1	1	4600	LW1	LW2	1000.0	50	230	300	catFR2	0	R1074M
156.865	1.6	105218	WORD	n/a	wordpools/wordpool_categorized_EN.txt	MICROWAVE	Electronics	7	1	1	[0, 0, 0]	n/a	0	1	0	n/a	n/a	0.0	0	0	0	catFR2	0	R1074M
159.265	1.6	106418	WORD	n/a	wordpools/wordpool_categorized_EN.txt	STEREO	Electronics	8	1	1	[0, 0, 0]	n/a	0	1	0	n/a	n/a	0.0	0	0	0	catFR2	0	R1074M
161.441	4.6	107506	STIM_ON	n/a	n/a	n/a	n/a	-999	0	1	[0, 0, 0]	n/a	1	1	4600	LW1	LW2	1000.0	50	230	300	catFR2	0	R1074M
161.649	1.6	107610	WORD	n/a	wordpools/wordpool_categorized_EN.txt	TULIP	Flowers	9	1	1	[0, 0, 0]	n/a	1	1	4600	LW1	LW2	1000.0	50	230	300	catFR2	0	R1074M
164.183	1.6	108877	WORD	n/a	wordpools/wordpool_categorized_EN.txt	PETUNIA	Flowers	10	1	1	[0, 0, 0]	n/a	1	1	4600	LW1	LW2	1000.0	50	230	300	catFR2	0	R1074M
166.633	1.6	110102	WORD	n/a	wordpools/wordpool_categorized_EN.txt	HORSE	FarmAnimals	11	1	1	[0, 0, 0]	n/a	0	1	0	n/a	n/a	0.0	0	0	0	catFR2	0	R1074M
169.017	1.6	111294	WORD	n/a	wordpools/wordpool_categorized_EN.txt	LAMB	FarmAnimals	12	1	1	[0, 0, 0]	n/a	0	1	0	n/a	n/a	0.0	0	0	0	catFR2	0	R1074M
170.634	0.0	112102	DISTRACT_START	n/a	n/a	n/a	n/a	-999	0	1	[0, 0, 0]	n/a	0	1	0	n/a	n/a	0.0	0	0	0	catFR2	0	R1074M
170.634	0.016	112102	START	n/a	n/a	n/a	n/a	-999	0	1	[-999, -999, -999]	n/a	0	1	0	n/a	n/a	0.0	0	0	0	catFR2	0	R1074M
170.65	6.702	112110	PROB	6.675	n/a	n/a	n/a	-999	0	1	[5, 9, 1]	15	0	1	0	n/a	n/a	0.0	0	0	0	catFR2	0	R1074M
177.352	7.301	115461	PROB	7.269	n/a	n/a	n/a	-999	0	1	[9, 5, 2]	16	0	1	0	n/a	n/a	0.0	0	0	0	catFR2	0	R1074M
184.653	8.056	119111	PROB	8.056	n/a	n/a	n/a	-999	0	1	[9, 3, 8]	20	0	1	0	n/a	n/a	0.0	0	0	0	catFR2	0	R1074M
192.709	0.012	123139	STOP	n/a	n/a	n/a	n/a	-999	0	1	[-999, -999, -999]	n/a	0	1	0	n/a	n/a	0.0	0	0	0	catFR2	0	R1074M
192.721	1.085	123145	DISTRACT_END	n/a	n/a	n/a	n/a	-999	0	1	[0, 0, 0]	n/a	0	1	0	n/a	n/a	0.0	0	0	0	catFR2	0	R1074M
193.806	1.724	123688	REC_START	n/a	n/a	n/a	n/a	-999	0	1	[0, 0, 0]	n/a	0	1	0	n/a	n/a	0.0	0	0	0	catFR2	0	R1074M
195.53	0.716	124549	REC_WORD	1.724	n/a	HORSE	FarmAnimals	11	1	1	[0, 0, 0]	n/a	0	1	0	n/a	n/a	0.0	0	0	0	catFR2	0	R1074M
196.246	0.663	124907	REC_WORD	2.44	n/a	LAMB	FarmAnimals	12	1	1	[0, 0, 0]	n/a	0	1	0	n/a	n/a	0.0	0	0	0	catFR2	0	R1074M
196.909	0.662	125239	REC_WORD	3.103	n/a	MICROWAVE	Electronics	7	1	1	[0, 0, 0]	n/a	0	1	0	n/a	n/a	0.0	0	0	0	catFR2	0	R1074M
197.571	2.719	125570	REC_WORD	3.765	n/a	STEREO	Electronics	8	1	1	[0, 0, 0]	n/a	0	1	0	n/a	n/a	0.0	0	0	0	catFR2	0	R1074M
200.29	0.794	126929	REC_WORD	6.484	n/a	TULIP	Flowers	9	1	1	[0, 0, 0]	n/a	0	1	0	n/a	n/a	0.0	0	0	0	catFR2	0	R1074M
201.084	12.216	127326	REC_WORD	7.278	n/a	PETUNIA	Flowers	10	1	1	[0, 0, 0]	n/a	0	1	0	n/a	n/a	0.0	0	0	0	catFR2	0	R1074M
213.3	10.516	133434	REC_WORD	19.494	n/a	MICROWAVE	Electronics	7	1	1	[0, 0, 0]	n/a	0	1	0	n/a	n/a	0.0	0	0	0	catFR2	0	R1074M
223.816	8.081	138692	REC_END	n/a	n/a	n/a	n/a	-999	0	1	[0, 0, 0]	n/a	0	1	0	n/a	n/a	0.0	0	0	0	catFR2	0	R1074M
231.897	0.0	142732	TRIAL	n/a	n/a	n/a	n/a	-999	0	2	[0, 0, 0]	n/a	0	0	0	n/a	n/a	0.0	0	0	0	catFR2	0	R1074M
231.897	10.0	142732	COUNTDOWN_START	n/a	n/a	n/a	n/a	-999	0	2	[0, 0, 0]	n/a	0	0	0	n/a	n/a	0.0	0	0	0	catFR2	0	R1074M
242.325	0.006	147946	COUNTDOWN_END	n/a	n/a	n/a	n/a	-999	0	2	[0, 0, 0]	n/a	0	0	0	n/a	n/a	0.0	0	0	0	catFR2	0	R1074M
242.331	1.6	147949	ORIENT	n/a	n/a	n/a	n/a	-999	0	2	[0, 0, 0]	n/a	0	0	0	n/a	n/a	0.0	0	0	0	catFR2	0	R1074M
246.048	1.6	149807	WORD	n/a	wordpools/wordpool_categorized_EN.txt	LEMON	Fruit	1	1	2	[0, 0, 0]	n/a	0	0	0	n/a	n/a	0.0	0	0	0	catFR2	0	R1074M
248.449	1.6	151007	WORD	n/a	wordpools/wordpool_categorized_EN.txt	PEACH	Fruit	2	1	2	[0, 0, 0]	n/a	0	0	0	n/a	n/a	0.0	0	0	0	catFR2	0	R1074M
250.983	1.6	152274	WORD	n/a	wordpools/wordpool_categorized_EN.txt	WIND	Weather	3	1	2	[0, 0, 0]	n/a	0	0	0	n/a	n/a	0.0	0	0	0	catFR2	0	R1074M
253.4	1.6	153483	WORD	n/a	wordpools/wordpool_categorized_EN.txt	THUNDERSTORM	Weather	4	0	2	[0, 0, 0]	n/a	0	0	0	n/a	n/a	0.0	0	0	0	catFR2	0	R1074M
255.85	1.6	154708	WORD	n/a	wordpools/wordpool_categorized_EN.txt	SKIRT	Clothing	5	0	2	[0, 0, 0]	n/a	0	0	0	n/a	n/a	0.0	0	0	0	catFR2	0	R1074M
258.317	1.6	155941	WORD	n/a	wordpools/wordpool_categorized_EN.txt	SHORTS	Clothing	6	0	2	[0, 0, 0]	n/a	0	0	0	n/a	n/a	0.0	0	0	0	catFR2	0	R1074M
260.851	1.6	157208	WORD	n/a	wordpools/wordpool_categorized_EN.txt	PEAR	Fruit	7	0	2	[0, 0, 0]	n/a	0	0	0	n/a	n/a	0.0	0	0	0	catFR2	0	R1074M
263.302	1.6	158434	WORD	n/a	wordpools/wordpool_categorized_EN.txt	BANANA	Fruit	8	1	2	[0, 0, 0]	n/a	0	0	0	n/a	n/a	0.0	0	0	0	catFR2	0	R1074M
265.702	1.6	159633	WORD	n/a	wordpools/wordpool_categorized_EN.txt	SHOES	Clothing	9	0	2	[0, 0, 0]	n/a	0	0	0	n/a	n/a	0.0	0	0	0	catFR2	0	R1074M
268.253	1.6	160909	WORD	n/a	wordpools/wordpool_categorized_EN.txt	SOCKS	Clothing	10	0	2	[0, 0, 0]	n/a	0	0	0	n/a	n/a	0.0	0	0	0	catFR2	0	R1074M
270.653	1.6	162109	WORD	n/a	wordpools/wordpool_categorized_EN.txt	HURRICANE	Weather	11	1	2	[0, 0, 0]	n/a	0	0	0	n/a	n/a	0.0	0	0	0	catFR2	0	R1074M
273.054	1.6	163309	WORD	n/a	wordpools/wordpool_categorized_EN.txt	DRIZZLE	Weather	12	1	2	[0, 0, 0]	n/a	0	0	0	n/a	n/a	0.0	0	0	0	catFR2	0	R1074M
274.671	0.001	164118	DISTRACT_START	n/a	n/a	n/a	n/a	-999	0	2	[0, 0, 0]	n/a	0	0	0	n/a	n/a	0.0	0	0	0	catFR2	0	R1074M
274.672	0.015	164118	START	n/a	n/a	n/a	n/a	-999	0	2	[-999, -999, -999]	n/a	0	0	0	n/a	n/a	0.0	0	0	0	catFR2	0	R1074M
274.687	4.468	164126	PROB	4.438	n/a	n/a	n/a	-999	0	2	[2, 1, 4]	7	0	0	0	n/a	n/a	0.0	0	0	0	catFR2	0	R1074M
279.155	5.251	166360	PROB	5.218	n/a	n/a	n/a	-999	0	2	[2, 7, 6]	15	0	0	0	n/a	n/a	0.0	0	0	0	catFR2	0	R1074M
284.406	4.451	168985	PROB	4.415	n/a	n/a	n/a	-999	0	2	[2, 9, 2]	13	0	0	0	n/a	n/a	0.0	0	0	0	catFR2	0	R1074M
288.857	5.117	171210	PROB	5.093	n/a	n/a	n/a	-999	0	2	[5, 8, 5]	18	0	0	0	n/a	n/a	0.0	0	0	0	catFR2	0	R1074M
293.974	5.639	173769	PROB	5.639	n/a	n/a	n/a	-999	0	2	[4, 1, 7]	12	0	0	0	n/a	n/a	0.0	0	0	0	catFR2	0	R1074M
299.613	0.012	176588	STOP	n/a	n/a	n/a	n/a	-999	0	2	[-999, -999, -999]	n/a	0	0	0	n/a	n/a	0.0	0	0	0	catFR2	0	R1074M
299.625	1.085	176594	DISTRACT_END	n/a	n/a	n/a	n/a	-999	0	2	[0, 0, 0]	n/a	0	0	0	n/a	n/a	0.0	0	0	0	catFR2	0	R1074M
300.71	1.419	177136	REC_START	n/a	n/a	n/a	n/a	-999	0	2	[0, 0, 0]	n/a	0	0	0	n/a	n/a	0.0	0	0	0	catFR2	0	R1074M
302.129	0.516	177846	REC_WORD	1.419	n/a	LEMON	Fruit	1	1	2	[0, 0, 0]	n/a	0	0	0	n/a	n/a	0.0	0	0	0	catFR2	0	R1074M
302.645	0.615	178104	REC_WORD	1.935	n/a	PEACH	Fruit	2	1	2	[0, 0, 0]	n/a	0	0	0	n/a	n/a	0.0	0	0	0	catFR2	0	R1074M
303.26	1.885	178411	REC_WORD	2.55	n/a	BANANA	Fruit	8	1	2	[0, 0, 0]	n/a	0	0	0	n/a	n/a	0.0	0	0	0	catFR2	0	R1074M
305.145	0.902	179354	REC_WORD	4.435	n/a	DRIZZLE	Weather	12	1	2	[0, 0, 0]	n/a	0	0	0	n/a	n/a	0.0	0	0	0	catFR2	0	R1074M
306.047	8.294	179805	REC_WORD	5.337	n/a	HURRICANE	Weather	11	1	2	[0, 0, 0]	n/a	0	0	0	n/a	n/a	0.0	0	0	0	catFR2	0	R1074M
314.341	16.378	183952	REC_WORD	13.631	n/a	WIND	Weather	3	1	2	[0, 0, 0]	n/a	0	0	0	n/a	n/a	0.0	0	0	0	catFR2	0	R1074M
330.719	4.413	192140	REC_END	n/a	n/a	n/a	n/a	-999	0	2	[0, 0, 0]	n/a	0	0	0	n/a	n/a	0.0	0	0	0	catFR2	0	R1074M
335.132	10.0	194346	COUNTDOWN_START	n/a	n/a	n/a	n/a	-999	0	3	[0, 0, 0]	n/a	0	0	0	n/a	n/a	0.0	0	0	0	catFR2	0	R1074M
335.133	10.427	194347	TRIAL	n/a	n/a	n/a	n/a	-999	0	3	[0, 0, 0]	n/a	0	0	0	n/a	n/a	0.0	0	0	0	catFR2	0	R1074M
345.56	0.008	199560	COUNTDOWN_END	n/a	n/a	n/a	n/a	-999	0	3	[0, 0, 0]	n/a	0	0	0	n/a	n/a	0.0	0	0	0	catFR2	0	R1074M
345.568	1.6	199564	ORIENT	n/a	n/a	n/a	n/a	-999	0	3	[0, 0, 0]	n/a	0	0	0	n/a	n/a	0.0	0	0	0	catFR2	0	R1074M
349.202	1.6	201381	WORD	n/a	wordpools/wordpool_categorized_EN.txt	TORNADO	Weather	1	0	3	[0, 0, 0]	n/a	0	0	0	n/a	n/a	0.0	0	0	0	catFR2	0	R1074M
351.769	1.6	202665	WORD	n/a	wordpools/wordpool_categorized_EN.txt	THUNDER	Weather	2	0	3	[0, 0, 0]	n/a	0	0	0	n/a	n/a	0.0	0	0	0	catFR2	0	R1074M
354.386	1.6	203973	WORD	n/a	wordpools/wordpool_categorized_EN.txt	PUDDING	Desserts	3	0	3	[0, 0, 0]	n/a	0	0	0	n/a	n/a	0.0	0	0	0	catFR2	0	R1074M
356.803	1.6	205181	WORD	n/a	wordpools/wordpool_categorized_EN.txt	PIE	Desserts	4	0	3	[0, 0, 0]	n/a	0	0	0	n/a	n/a	0.0	0	0	0	catFR2	0	R1074M
359.387	1.6	206473	WORD	n/a	wordpools/wordpool_categorized_EN.txt	CEILING	Building	5	1	3	[0, 0, 0]	n/a	0	0	0	n/a	n/a	0.0	0	0	0	catFR2	0	R1074M
362.004	1.6	207782	WORD	n/a	wordpools/wordpool_categorized_EN.txt	HALLWAY	Building	6	1	3	[0, 0, 0]	n/a	0	0	0	n/a	n/a	0.0	0	0	0	catFR2	0	R1074M
364.638	1.6	209099	WORD	n/a	wordpools/wordpool_categorized_EN.txt	FUDGE	Desserts	7	0	3	[0, 0, 0]	n/a	0	0	0	n/a	n/a	0.0	0	0	0	catFR2	0	R1074M
367.122	1.6	210341	WORD	n/a	wordpools/wordpool_categorized_EN.txt	CAKE	Desserts	8	0	3	[0, 0, 0]	n/a	0	0	0	n/a	n/a	0.0	0	0	0	catFR2	0	R1074M
369.689	1.6	211624	WORD	n/a	wordpools/wordpool_categorized_EN.txt	RAIN	Weather	9	0	3	[0, 0, 0]	n/a	0	0	0	n/a	n/a	0.0	0	0	0	catFR2	0	R1074M
372.256	1.6	212907	WORD	n/a	wordpools/wordpool_categorized_EN.txt	LIGHTNING	Weather	10	0	3	[0, 0, 0]	n/a	0	0	0	n/a	n/a	0.0	0	0	0	catFR2	0	R1074M
374.823	1.6	214191	WORD	n/a	wordpools/wordpool_categorized_EN.txt	ROOM	Building	11	0	3	[0, 0, 0]	n/a	0	0	0	n/a	n/a	0.0	0	0	0	catFR2	0	R1074M
377.257	1.6	215408	WORD	n/a	wordpools/wordpool_categorized_EN.txt	BATHROOM	Building	12	0	3	[0, 0, 0]	n/a	0	0	0	n/a	n/a	0.0	0	0	0	catFR2	0	R1074M
378.875	0.001	216217	DISTRACT_START	n/a	n/a	n/a	n/a	-999	0	3	[0, 0, 0]	n/a	0	0	0	n/a	n/a	0.0	0	0	0	catFR2	0	R1074M
378.876	0.016	216217	START	n/a	n/a	n/a	n/a	-999	0	3	[-999, -999, -999]	n/a	0	0	0	n/a	n/a	0.0	0	0	0	catFR2	0	R1074M
378.892	8.701	216225	PROB	8.673	n/a	n/a	n/a	-999	0	3	[4, 4, 8]	15	0	0	0	n/a	n/a	0.0	0	0	0	catFR2	0	R1074M
387.593	6.784	220575	PROB	6.764	n/a	n/a	n/a	-999	0	3	[4, 2, 8]	14	0	0	0	n/a	n/a	0.0	0	0	0	catFR2	0	R1074M
394.377	7.308	223967	PROB	7.308	n/a	n/a	n/a	-999	0	3	[3, 7, 9]	19	0	0	0	n/a	n/a	0.0	0	0	0	catFR2	0	R1074M
401.685	0.01	227621	STOP	n/a	n/a	n/a	n/a	-999	0	3	[-999, -999, -999]	n/a	0	0	0	n/a	n/a	0.0	0	0	0	catFR2	0	R1074M
401.695	1.034	227626	DISTRACT_END	n/a	n/a	n/a	n/a	-999	0	3	[0, 0, 0]	n/a	0	0	0	n/a	n/a	0.0	0	0	0	catFR2	0	R1074M
402.729	2.497	228143	REC_START	n/a	n/a	n/a	n/a	-999	0	3	[0, 0, 0]	n/a	0	0	0	n/a	n/a	0.0	0	0	0	catFR2	0	R1074M
405.226	0.584	229391	REC_WORD	2.497	n/a	HALLWAY	Building	6	1	3	[0, 0, 0]	n/a	0	0	0	n/a	n/a	0.0	0	0	0	catFR2	0	R1074M
405.81	26.931	229683	REC_WORD	3.081	n/a	CEILING	Building	5	1	3	[0, 0, 0]	n/a	0	0	0	n/a	n/a	0.0	0	0	0	catFR2	0	R1074M
432.741	5.111	243148	REC_END	n/a	n/a	n/a	n/a	-999	0	3	[0, 0, 0]	n/a	0	0	0	n/a	n/a	0.0	0	0	0	catFR2	0	R1074M
437.852	10.0	245704	COUNTDOWN_START	n/a	n/a	n/a	n/a	-999	0	4	[0, 0, 0]	n/a	0	1	0	n/a	n/a	0.0	0	0	0	catFR2	0	R1074M
437.853	10.427	245704	TRIAL	n/a	n/a	n/a	n/a	-999	0	4	[0, 0, 0]	n/a	0	1	0	n/a	n/a	0.0	0	0	0	catFR2	0	R1074M
448.28	0.008	250917	COUNTDOWN_END	n/a	n/a	n/a	n/a	-999	0	4	[0, 0, 0]	n/a	0	1	0	n/a	n/a	0.0	0	0	0	catFR2	0	R1074M
448.288	1.6	250921	ORIENT	n/a	n/a	n/a	n/a	-999	0	4	[0, 0, 0]	n/a	0	1	0	n/a	n/a	0.0	0	0	0	catFR2	0	R1074M
451.988	1.6	252771	WORD	n/a	wordpools/wordpool_categorized_EN.txt	PEAS	Vegetables	1	1	4	[0, 0, 0]	n/a	0	1	0	n/a	n/a	0.0	0	0	0	catFR2	0	R1074M
454.539	1.6	254047	WORD	n/a	wordpools/wordpool_categorized_EN.txt	CUCUMBER	Vegetables	2	1	4	[0, 0, 0]	n/a	0	1	0	n/a	n/a	0.0	0	0	0	catFR2	0	R1074M
456.924	4.6	255239	STIM_ON	n/a	n/a	n/a	n/a	-999	0	4	[0, 0, 0]	n/a	1	1	4600	LW1	LW2	1000.0	50	230	300	catFR2	0	R1074M
457.139	1.6	255347	WORD	n/a	wordpools/wordpool_categorized_EN.txt	LEG	BodyParts	3	0	4	[0, 0, 0]	n/a	1	1	4600	LW1	LW2	1000.0	50	230	300	catFR2	0	R1074M
459.657	1.6	256605	WORD	n/a	wordpools/wordpool_categorized_EN.txt	ARM	BodyParts	4	0	4	[0, 0, 0]	n/a	1	1	4600	LW1	LW2	1000.0	50	230	300	catFR2	0	R1074M
462.224	1.6	257889	WORD	n/a	wordpools/wordpool_categorized_EN.txt	TURTLE	OceanAnimals	5	0	4	[0, 0, 0]	n/a	0	1	0	n/a	n/a	0.0	0	0	0	catFR2	0	R1074M
464.641	1.6	259097	WORD	n/a	wordpools/wordpool_categorized_EN.txt	OYSTER	OceanAnimals	6	0	4	[0, 0, 0]	n/a	0	1	0	n/a	n/a	0.0	0	0	0	catFR2	0	R1074M
467.06	4.6	260307	STIM_ON	n/a	n/a	n/a	n/a	-999	0	4	[0, 0, 0]	n/a	1	1	4600	LW1	LW2	1000.0	50	230	300	catFR2	0	R1074M
467.275	1.6	260414	WORD	n/a	wordpools/wordpool_categorized_EN.txt	CAULIFLOWER	Vegetables	7	0	4	[0, 0, 0]	n/a	1	1	4600	LW1	LW2	1000.0	50	230	300	catFR2	0	R1074M
469.825	1.6	261689	WORD	n/a	wordpools/wordpool_categorized_EN.txt	LETTUCE	Vegetables	8	1	4	[0, 0, 0]	n/a	1	1	4600	LW1	LW2	1000.0	50	230	300	catFR2	0	R1074M
472.292	1.6	262923	WORD	n/a	wordpools/wordpool_categorized_EN.txt	SQUID	OceanAnimals	9	0	4	[0, 0, 0]	n/a	0	1	0	n/a	n/a	0.0	0	0	0	catFR2	0	R1074M
474.793	1.6	264173	WORD	n/a	wordpools/wordpool_categorized_EN.txt	CRAB	OceanAnimals	10	0	4	[0, 0, 0]	n/a	0	1	0	n/a	n/a	0.0	0	0	0	catFR2	0	R1074M
476.976	4.6	265264	STIM_ON	n/a	n/a	n/a	n/a	-999	0	4	[0, 0, 0]	n/a	1	1	4600	LW1	LW2	1000.0	50	230	300	catFR2	0	R1074M
477.193	1.6	265373	WORD	n/a	wordpools/wordpool_categorized_EN.txt	EYE	BodyParts	11	1	4	[0, 0, 0]	n/a	1	1	4600	LW1	LW2	1000.0	50	230	300	catFR2	0	R1074M
479.644	1.6	266598	WORD	n/a	wordpools/wordpool_categorized_EN.txt	HEAD	BodyParts	12	1	4	[0, 0, 0]	n/a	1	1	4600	LW1	LW2	1000.0	50	230	300	catFR2	0	R1074M
481.261	0.001	267407	DISTRACT_START	n/a	n/a	n/a	n/a	-999	0	4	[0, 0, 0]	n/a	0	1	0	n/a	n/a	0.0	0	0	0	catFR2	0	R1074M
481.262	0.015	267407	START	n/a	n/a	n/a	n/a	-999	0	4	[-999, -999, -999]	n/a	0	1	0	n/a	n/a	0.0	0	0	0	catFR2	0	R1074M
481.277	10.452	267415	PROB	10.424	n/a	n/a	n/a	-999	0	4	[4, 5, 8]	17	0	1	0	n/a	n/a	0.0	0	0	0	catFR2	0	R1074M
491.729	4.235	272641	PROB	4.213	n/a	n/a	n/a	-999	0	4	[4, 2, 1]	7	0	1	0	n/a	n/a	0.0	0	0	0	catFR2	0	R1074M
495.964	5.051	274758	PROB	5.017	n/a	n/a	n/a	-999	0	4	[1, 6, 3]	10	0	1	0	n/a	n/a	0.0	0	0	0	catFR2	0	R1074M
501.015	4.261	277283	PROB	4.261	n/a	n/a	n/a	-999	0	4	[4, 8, 1]	13	0	1	0	n/a	n/a	0.0	0	0	0	catFR2	0	R1074M
505.276	0.006	279414	STOP	n/a	n/a	n/a	n/a	-999	0	4	[-999, -999, -999]	n/a	0	1	0	n/a	n/a	0.0	0	0	0	catFR2	0	R1074M
505.282	1.151	279417	DISTRACT_END	n/a	n/a	n/a	n/a	-999	0	4	[0, 0, 0]	n/a	0	1	0	n/a	n/a	0.0	0	0	0	catFR2	0	R1074M
506.433	1.448	279992	REC_START	n/a	n/a	n/a	n/a	-999	0	4	[0, 0, 0]	n/a	0	1	0	n/a	n/a	0.0	0	0	0	catFR2	0	R1074M
507.881	0.514	280716	REC_WORD	1.448	n/a	EYE	BodyParts	11	1	4	[0, 0, 0]	n/a	0	1	0	n/a	n/a	0.0	0	0	0	catFR2	0	R1074M
508.395	4.664	280973	REC_WORD	1.962	n/a	HEAD	BodyParts	12	1	4	[0, 0, 0]	n/a	0	1	0	n/a	n/a	0.0	0	0	0	catFR2	0	R1074M
513.059	1.117	283305	REC_WORD	6.626	n/a	PEAS	Vegetables	1	1	4	[0, 0, 0]	n/a	0	1	0	n/a	n/a	0.0	0	0	0	catFR2	0	R1074M
514.176	10.506	283863	REC_WORD	7.743	n/a	CUCUMBER	Vegetables	2	1	4	[0, 0, 0]	n/a	0	1	0	n/a	n/a	0.0	0	0	0	catFR2	0	R1074M
524.682	5.381	289116	REC_WORD	18.249	n/a	LETTUCE	Vegetables	8	1	4	[0, 0, 0]	n/a	0	1	0	n/a	n/a	0.0	0	0	0	catFR2	0	R1074M
530.063	6.379	291806	REC_WORD	23.63	n/a	EAR	n/a	-999	0	4	[0, 0, 0]	n/a	0	1	0	n/a	n/a	0.0	0	0	0	catFR2	0	R1074M
536.442	15.149	294996	REC_END	n/a	n/a	n/a	n/a	-999	0	4	[0, 0, 0]	n/a	0	1	0	n/a	n/a	0.0	0	0	0	catFR2	0	R1074M
551.591	0.0	302570	TRIAL	n/a	n/a	n/a	n/a	-999	0	5	[0, 0, 0]	n/a	0	1	0	n/a	n/a	0.0	0	0	0	catFR2	0	R1074M
551.591	10.0	302570	COUNTDOWN_START	n/a	n/a	n/a	n/a	-999	0	5	[0, 0, 0]	n/a	0	1	0	n/a	n/a	0.0	0	0	0	catFR2	0	R1074M
562.019	0.007	307784	COUNTDOWN_END	n/a	n/a	n/a	n/a	-999	0	5	[0, 0, 0]	n/a	0	1	0	n/a	n/a	0.0	0	0	0	catFR2	0	R1074M
562.026	1.6	307787	ORIENT	n/a	n/a	n/a	n/a	-999	0	5	[0, 0, 0]	n/a	0	1	0	n/a	n/a	0.0	0	0	0	catFR2	0	R1074M
565.695	4.6	309621	STIM_ON	n/a	n/a	n/a	n/a	-999	0	5	[0, 0, 0]	n/a	1	1	4600	LW1	LW2	1000.0	50	230	300	catFR2	0	R1074M
565.912	1.6	309730	WORD	n/a	wordpools/wordpool_categorized_EN.txt	CHAIR	Furniture	1	0	5	[0, 0, 0]	n/a	1	1	4600	LW1	LW2	1000.0	50	230	300	catFR2	0	R1074M
568.311	1.6	310929	WORD	n/a	wordpools/wordpool_categorized_EN.txt	BED	Furniture	2	0	5	[0, 0, 0]	n/a	1	1	4600	LW1	LW2	1000.0	50	230	300	catFR2	0	R1074M
570.896	1.6	312222	WORD	n/a	wordpools/wordpool_categorized_EN.txt	IRON	Appliances	3	0	5	[0, 0, 0]	n/a	0	1	0	n/a	n/a	0.0	0	0	0	catFR2	0	R1074M
573.495	1.6	313521	WORD	n/a	wordpools/wordpool_categorized_EN.txt	BLENDER	Appliances	4	0	5	[0, 0, 0]	n/a	0	1	0	n/a	n/a	0.0	0	0	0	catFR2	0	R1074M
575.713	4.6	314630	STIM_ON	n/a	n/a	n/a	n/a	-999	0	5	[0, 0, 0]	n/a	1	1	4600	LW1	LW2	1000.0	50	230	300	catFR2	0	R1074M
575.93	1.6	314739	WORD	n/a	wordpools/wordpool_categorized_EN.txt	JACKET	Clothing	5	1	5	[0, 0, 0]	n/a	1	1	4600	LW1	LW2	1000.0	50	230	300	catFR2	0	R1074M
578.33	1.6	315939	WORD	n/a	wordpools/wordpool_categorized_EN.txt	UNDERWEAR	Clothing	6	0	5	[0, 0, 0]	n/a	1	1	4600	LW1	LW2	1000.0	50	230	300	catFR2	0	R1074M
580.847	1.6	317197	WORD	n/a	wordpools/wordpool_categorized_EN.txt	TOASTER	Appliances	7	0	5	[0, 0, 0]	n/a	0	1	0	n/a	n/a	0.0	0	0	0	catFR2	0	R1074M
583.281	1.6	318414	WORD	n/a	wordpools/wordpool_categorized_EN.txt	VACUUM	Appliances	8	0	5	[0, 0, 0]	n/a	0	1	0	n/a	n/a	0.0	0	0	0	catFR2	0	R1074M
585.625	4.6	319586	STIM_ON	n/a	n/a	n/a	n/a	-999	0	5	[0, 0, 0]	n/a	1	1	4600	LW1	LW2	1000.0	50	230	300	catFR2	0	R1074M
585.831	1.6	319689	WORD	n/a	wordpools/wordpool_categorized_EN.txt	SHELF	Furniture	9	1	5	[0, 0, 0]	n/a	1	1	4600	LW1	LW2	1000.0	50	230	300	catFR2	0	R1074M
588.398	1.6	320972	WORD	n/a	wordpools/wordpool_categorized_EN.txt	DESK	Furniture	10	0	5	[0, 0, 0]	n/a	1	1	4600	LW1	LW2	1000.0	50	230	300	catFR2	0	R1074M
590.998	1.6	322272	WORD	n/a	wordpools/wordpool_categorized_EN.txt	JEANS	Clothing	11	1	5	[0, 0, 0]	n/a	0	1	0	n/a	n/a	0.0	0	0	0	catFR2	0	R1074M
593.433	1.6	323490	WORD	n/a	wordpools/wordpool_categorized_EN.txt	COAT	Clothing	12	1	5	[0, 0, 0]	n/a	0	1	0	n/a	n/a	0.0	0	0	0	catFR2	0	R1074M
595.049	0.001	324298	DISTRACT_START	n/a	n/a	n/a	n/a	-999	0	5	[0, 0, 0]	n/a	0	1	0	n/a	n/a	0.0	0	0	0	catFR2	0	R1074M
595.05	0.016	324298	START	n/a	n/a	n/a	n/a	-999	0	5	[-999, -999, -999]	n/a	0	1	0	n/a	n/a	0.0	0	0	0	catFR2	0	R1074M
595.066	5.601	324306	PROB	5.571	n/a	n/a	n/a	-999	0	5	[7, 1, 5]	13	0	1	0	n/a	n/a	0.0	0	0	0	catFR2	0	R1074M
600.667	4.351	327106	PROB	4.33	n/a	n/a	n/a	-999	0	5	[5, 3, 2]	10	0	1	0	n/a	n/a	0.0	0	0	0	catFR2	0	R1074M
605.018	4.951	329282	PROB	4.916	n/a	n/a	n/a	-999	0	5	[2, 5, 1]	8	0	1	0	n/a	n/a	0.0	0	0	0	catFR2	0	R1074M
609.969	5.772	331757	PROB	5.772	n/a	n/a	n/a	-999	0	5	[5, 8, 8]	21	0	1	0	n/a	n/a	0.0	0	0	0	catFR2	0	R1074M
615.741	0.012	334643	STOP	n/a	n/a	n/a	n/a	-999	0	5	[-999, -999, -999]	n/a	0	1	0	n/a	n/a	0.0	0	0	0	catFR2	0	R1074M
615.753	1.118	334649	DISTRACT_END	n/a	n/a	n/a	n/a	-999	0	5	[0, 0, 0]	n/a	0	1	0	n/a	n/a	0.0	0	0	0	catFR2	0	R1074M
616.871	1.448	335208	REC_START	n/a	n/a	n/a	n/a	-999	0	5	[0, 0, 0]	n/a	0	1	0	n/a	n/a	0.0	0	0	0	catFR2	0	R1074M
618.319	0.451	335932	REC_WORD	1.448	n/a	JEANS	Clothing	11	1	5	[0, 0, 0]	n/a	0	1	0	n/a	n/a	0.0	0	0	0	catFR2	0	R1074M
618.77	8.723	336157	REC_WORD	1.899	n/a	JACKET	Clothing	5	1	5	[0, 0, 0]	n/a	0	1	0	n/a	n/a	0.0	0	0	0	catFR2	0	R1074M
627.493	10.525	340519	REC_WORD	10.622	n/a	COAT	Clothing	12	1	5	[0, 0, 0]	n/a	0	1	0	n/a	n/a	0.0	0	0	0	catFR2	0	R1074M
638.018	8.861	345781	REC_WORD	21.147	n/a	SHELF	Furniture	9	1	5	[0, 0, 0]	n/a	0	1	0	n/a	n/a	0.0	0	0	0	catFR2	0	R1074M
646.879	4.215	350211	REC_END	n/a	n/a	n/a	n/a	-999	0	5	[0, 0, 0]	n/a	0	1	0	n/a	n/a	0.0	0	0	0	catFR2	0	R1074M
651.094	0.0	352319	TRIAL	n/a	n/a	n/a	n/a	-999	0	6	[0, 0, 0]	n/a	0	1	0	n/a	n/a	0.0	0	0	0	catFR2	0	R1074M
651.094	10.0	352319	COUNTDOWN_START	n/a	n/a	n/a	n/a	-999	0	6	[0, 0, 0]	n/a	0	1	0	n/a	n/a	0.0	0	0	0	catFR2	0	R1074M
661.522	0.007	357532	COUNTDOWN_END	n/a	n/a	n/a	n/a	-999	0	6	[0, 0, 0]	n/a	0	1	0	n/a	n/a	0.0	0	0	0	catFR2	0	R1074M
661.529	1.6	357536	ORIENT	n/a	n/a	n/a	n/a	-999	0	6	[0, 0, 0]	n/a	0	1	0	n/a	n/a	0.0	0	0	0	catFR2	0	R1074M
665.284	4.6	359413	STIM_ON	n/a	n/a	n/a	n/a	-999	0	6	[0, 0, 0]	n/a	1	1	4600	LW1	LW2	1000.0	50	230	300	catFR2	0	R1074M
665.497	1.6	359520	WORD	n/a	wordpools/wordpool_categorized_EN.txt	SNOW	Weather	1	1	6	[0, 0, 0]	n/a	1	1	4600	LW1	LW2	1000.0	50	230	300	catFR2	0	R1074M
667.997	1.6	360770	WORD	n/a	wordpools/wordpool_categorized_EN.txt	CLOUD	Weather	2	0	6	[0, 0, 0]	n/a	1	1	4600	LW1	LW2	1000.0	50	230	300	catFR2	0	R1074M
670.547	1.6	362044	WORD	n/a	wordpools/wordpool_categorized_EN.txt	EAR	BodyParts	3	0	6	[0, 0, 0]	n/a	0	1	0	n/a	n/a	0.0	0	0	0	catFR2	0	R1074M
672.932	1.6	363237	WORD	n/a	wordpools/wordpool_categorized_EN.txt	ELBOW	BodyParts	4	0	6	[0, 0, 0]	n/a	0	1	0	n/a	n/a	0.0	0	0	0	catFR2	0	R1074M
675.316	4.6	364429	STIM_ON	n/a	n/a	n/a	n/a	-999	0	6	[0, 0, 0]	n/a	1	1	4600	LW1	LW2	1000.0	50	230	300	catFR2	0	R1074M
675.532	1.6	364537	WORD	n/a	wordpools/wordpool_categorized_EN.txt	DRYER	Appliances	5	0	6	[0, 0, 0]	n/a	1	1	4600	LW1	LW2	1000.0	50	230	300	catFR2	0	R1074M
677.999	1.6	365770	WORD	n/a	wordpools/wordpool_categorized_EN.txt	REFRIGERATOR	Appliances	6	0	6	[0, 0, 0]	n/a	1	1	4600	LW1	LW2	1000.0	50	230	300	catFR2	0	R1074M
680.566	1.6	367054	WORD	n/a	wordpools/wordpool_categorized_EN.txt	HUMIDITY	Weather	7	1	6	[0, 0, 0]	n/a	0	1	0	n/a	n/a	0.0	0	0	0	catFR2	0	R1074M
683.033	1.6	368287	WORD	n/a	wordpools/wordpool_categorized_EN.txt	FOG	Weather	8	0	6	[0, 0, 0]	n/a	0	1	0	n/a	n/a	0.0	0	0	0	catFR2	0	R1074M
685.387	4.6	369464	STIM_ON	n/a	n/a	n/a	n/a	-999	0	6	[0, 0, 0]	n/a	1	1	4600	LW1	LW2	1000.0	50	230	300	catFR2	0	R1074M
685.6	1.6	369571	WORD	n/a	wordpools/wordpool_categorized_EN.txt	DISHWASHER	Appliances	9	0	6	[0, 0, 0]	n/a	1	1	4600	LW1	LW2	1000.0	50	230	300	catFR2	0	R1074M
688.001	1.6	370771	WORD	n/a	wordpools/wordpool_categorized_EN.txt	FREEZER	Appliances	10	0	6	[0, 0, 0]	n/a	1	1	4600	LW1	LW2	1000.0	50	230	300	catFR2	0	R1074M
690.435	1.6	371988	WORD	n/a	wordpools/wordpool_categorized_EN.txt	NOSE	BodyParts	11	0	6	[0, 0, 0]	n/a	0	1	0	n/a	n/a	0.0	0	0	0	catFR2	0	R1074M
692.852	1.6	373196	WORD	n/a	wordpools/wordpool_categorized_EN.txt	FINGERS	BodyParts	12	0	6	[0, 0, 0]	n/a	0	1	0	n/a	n/a	0.0	0	0	0	catFR2	0	R1074M
694.469	0.001	374005	DISTRACT_START	n/a	n/a	n/a	n/a	-999	0	6	[0, 0, 0]	n/a	0	1	0	n/a	n/a	0.0	0	0	0	catFR2	0	R1074M
694.47	0.015	374005	START	n/a	n/a	n/a	n/a	-999	0	6	[-999, -999, -999]	n/a	0	1	0	n/a	n/a	0.0	0	0	0	catFR2	0	R1074M
694.485	5.151	374013	PROB	5.12	n/a	n/a	n/a	-999	0	6	[4, 5, 2]	11	0	1	0	n/a	n/a	0.0	0	0	0	catFR2	0	R1074M
699.636	5.385	376588	PROB	5.361	n/a	n/a	n/a	-999	0	6	[2, 2, 4]	8	0	1	0	n/a	n/a	0.0	0	0	0	catFR2	0	R1074M
705.021	3.35	379280	PROB	3.328	n/a	n/a	n/a	-999	0	6	[9, 1, 1]	11	0	1	0	n/a	n/a	0.0	0	0	0	catFR2	0	R1074M
708.371	14.634	380955	PROB	14.634	n/a	n/a	n/a	-999	0	6	[8, 5, 6]	19	0	1	0	n/a	n/a	0.0	0	0	0	catFR2	0	R1074M
723.005	0.019	388272	STOP	n/a	n/a	n/a	n/a	-999	0	6	[-999, -999, -999]	n/a	0	1	0	n/a	n/a	0.0	0	0	0	catFR2	0	R1074M
723.024	1.068	388281	DISTRACT_END	n/a	n/a	n/a	n/a	-999	0	6	[0, 0, 0]	n/a	0	1	0	n/a	n/a	0.0	0	0	0	catFR2	0	R1074M
724.092	2.118	388815	REC_START	n/a	n/a	n/a	n/a	-999	0	6	[0, 0, 0]	n/a	0	1	0	n/a	n/a	0.0	0	0	0	catFR2	0	R1074M
726.21	0.837	389874	REC_WORD	2.118	n/a	SNOW	Weather	1	1	6	[0, 0, 0]	n/a	0	1	0	n/a	n/a	0.0	0	0	0	catFR2	0	R1074M
727.047	7.68	390293	REC_WORD	2.955	n/a	HUMIDITY	Weather	7	1	6	[0, 0, 0]	n/a	0	1	0	n/a	n/a	0.0	0	0	0	catFR2	0	R1074M
734.727	19.375	394133	REC_WORD	10.635	n/a	SHOVEL	n/a	-999	0	6	[0, 0, 0]	n/a	0	1	0	n/a	n/a	0.0	0	0	0	catFR2	0	R1074M
754.102	9.53	403820	REC_END	n/a	n/a	n/a	n/a	-999	0	6	[0, 0, 0]	n/a	0	1	0	n/a	n/a	0.0	0	0	0	catFR2	0	R1074M
763.632	0.0	408584	TRIAL	n/a	n/a	n/a	n/a	-999	0	7	[0, 0, 0]	n/a	0	0	0	n/a	n/a	0.0	0	0	0	catFR2	0	R1074M
763.632	10.0	408584	COUNTDOWN_START	n/a	n/a	n/a	n/a	-999	0	7	[0, 0, 0]	n/a	0	0	0	n/a	n/a	0.0	0	0	0	catFR2	0	R1074M
774.06	0.007	413798	COUNTDOWN_END	n/a	n/a	n/a	n/a	-999	0	7	[0, 0, 0]	n/a	0	0	0	n/a	n/a	0.0	0	0	0	catFR2	0	R1074M
774.067	1.6	413802	ORIENT	n/a	n/a	n/a	n/a	-999	0	7	[0, 0, 0]	n/a	0	0	0	n/a	n/a	0.0	0	0	0	catFR2	0	R1074M
777.936	1.6	415736	WORD	n/a	wordpools/wordpool_categorized_EN.txt	MOSQUITO	Insects	1	1	7	[0, 0, 0]	n/a	0	0	0	n/a	n/a	0.0	0	0	0	catFR2	0	R1074M
780.485	1.6	417010	WORD	n/a	wordpools/wordpool_categorized_EN.txt	FLY	Insects	2	1	7	[0, 0, 0]	n/a	0	0	0	n/a	n/a	0.0	0	0	0	catFR2	0	R1074M
783.069	1.6	418302	WORD	n/a	wordpools/wordpool_categorized_EN.txt	COLANDER	KitchenTools	3	1	7	[0, 0, 0]	n/a	0	0	0	n/a	n/a	0.0	0	0	0	catFR2	0	R1074M
785.669	1.6	419602	WORD	n/a	wordpools/wordpool_categorized_EN.txt	SPATULA	KitchenTools	4	0	7	[0, 0, 0]	n/a	0	0	0	n/a	n/a	0.0	0	0	0	catFR2	0	R1074M
788.254	1.6	420895	WORD	n/a	wordpools/wordpool_categorized_EN.txt	STAPLER	OfficeSupplies	5	0	7	[0, 0, 0]	n/a	0	0	0	n/a	n/a	0.0	0	0	0	catFR2	0	R1074M
790.704	1.6	422120	WORD	n/a	wordpools/wordpool_categorized_EN.txt	GLUE	OfficeSupplies	6	1	7	[0, 0, 0]	n/a	0	0	0	n/a	n/a	0.0	0	0	0	catFR2	0	R1074M
793.121	1.6	423328	WORD	n/a	wordpools/wordpool_categorized_EN.txt	LADLE	KitchenTools	7	0	7	[0, 0, 0]	n/a	0	0	0	n/a	n/a	0.0	0	0	0	catFR2	0	R1074M
795.655	1.6	424595	WORD	n/a	wordpools/wordpool_categorized_EN.txt	FORK	KitchenTools	8	0	7	[0, 0, 0]	n/a	0	0	0	n/a	n/a	0.0	0	0	0	catFR2	0	R1074M
798.139	1.6	425837	WORD	n/a	wordpools/wordpool_categorized_EN.txt	BUTTERFLY	Insects	9	0	7	[0, 0, 0]	n/a	0	0	0	n/a	n/a	0.0	0	0	0	catFR2	0	R1074M
800.539	1.6	427037	WORD	n/a	wordpools/wordpool_categorized_EN.txt	LADYBUG	Insects	10	0	7	[0, 0, 0]	n/a	0	0	0	n/a	n/a	0.0	0	0	0	catFR2	0	R1074M
803.106	1.6	428320	WORD	n/a	wordpools/wordpool_categorized_EN.txt	FOLDER	OfficeSupplies	11	0	7	[0, 0, 0]	n/a	0	0	0	n/a	n/a	0.0	0	0	0	catFR2	0	R1074M
805.54	1.6	429537	WORD	n/a	wordpools/wordpool_categorized_EN.txt	TAPE	OfficeSupplies	12	1	7	[0, 0, 0]	n/a	0	0	0	n/a	n/a	0.0	0	0	0	catFR2	0	R1074M
807.157	0.001	430346	DISTRACT_START	n/a	n/a	n/a	n/a	-999	0	7	[0, 0, 0]	n/a	0	0	0	n/a	n/a	0.0	0	0	0	catFR2	0	R1074M
807.158	0.016	430346	START	n/a	n/a	n/a	n/a	-999	0	7	[-999, -999, -999]	n/a	0	0	0	n/a	n/a	0.0	0	0	0	catFR2	0	R1074M
807.174	4.651	430354	PROB	4.615	n/a	n/a	n/a	-999	0	7	[4, 2, 3]	9	0	0	0	n/a	n/a	0.0	0	0	0	catFR2	0	R1074M
811.825	2.834	432679	PROB	2.812	n/a	n/a	n/a	-999	0	7	[1, 1, 9]	11	0	0	0	n/a	n/a	0.0	0	0	0	catFR2	0	R1074M
814.659	7.668	434096	PROB	7.634	n/a	n/a	n/a	-999	0	7	[7, 9, 6]	22	0	0	0	n/a	n/a	0.0	0	0	0	catFR2	0	R1074M
822.327	5.583	437930	PROB	5.583	n/a	n/a	n/a	-999	0	7	[5, 6, 5]	16	0	0	0	n/a	n/a	0.0	0	0	0	catFR2	0	R1074M
827.91	0.019	440721	STOP	n/a	n/a	n/a	n/a	-999	0	7	[-999, -999, -999]	n/a	0	0	0	n/a	n/a	0.0	0	0	0	catFR2	0	R1074M
827.929	1.083	440731	DISTRACT_END	n/a	n/a	n/a	n/a	-999	0	7	[0, 0, 0]	n/a	0	0	0	n/a	n/a	0.0	0	0	0	catFR2	0	R1074M
829.012	3.076	441272	REC_START	n/a	n/a	n/a	n/a	-999	0	7	[0, 0, 0]	n/a	0	0	0	n/a	n/a	0.0	0	0	0	catFR2	0	R1074M
832.088	0.902	442810	REC_WORD	3.076	n/a	FLY	Insects	2	1	7	[0, 0, 0]	n/a	0	0	0	n/a	n/a	0.0	0	0	0	catFR2	0	R1074M
832.99	9.679	443261	REC_WORD	3.978	n/a	MOSQUITO	Insects	1	1	7	[0, 0, 0]	n/a	0	0	0	n/a	n/a	0.0	0	0	0	catFR2	0	R1074M
842.669	1.418	448101	REC_WORD	13.657	n/a	TAPE	OfficeSupplies	12	1	7	[0, 0, 0]	n/a	0	0	0	n/a	n/a	0.0	0	0	0	catFR2	0	R1074M
844.087	11.239	448810	REC_WORD	15.075	n/a	GLUE	OfficeSupplies	6	1	7	[0, 0, 0]	n/a	0	0	0	n/a	n/a	0.0	0	0	0	catFR2	0	R1074M
855.326	3.696	454429	REC_WORD	26.314	n/a	COLANDER	KitchenTools	3	1	7	[0, 0, 0]	n/a	0	0	0	n/a	n/a	0.0	0	0	0	catFR2	0	R1074M
859.022	5.08	456277	REC_END	n/a	n/a	n/a	n/a	-999	0	7	[0, 0, 0]	n/a	0	0	0	n/a	n/a	0.0	0	0	0	catFR2	0	R1074M
864.102	0.0	458816	TRIAL	n/a	n/a	n/a	n/a	-999	0	8	[0, 0, 0]	n/a	0	1	0	n/a	n/a	0.0	0	0	0	catFR2	0	R1074M
864.102	10.0	458816	COUNTDOWN_START	n/a	n/a	n/a	n/a	-999	0	8	[0, 0, 0]	n/a	0	1	0	n/a	n/a	0.0	0	0	0	catFR2	0	R1074M
874.53	0.007	464030	COUNTDOWN_END	n/a	n/a	n/a	n/a	-999	0	8	[0, 0, 0]	n/a	0	1	0	n/a	n/a	0.0	0	0	0	catFR2	0	R1074M
874.537	1.6	464034	ORIENT	n/a	n/a	n/a	n/a	-999	0	8	[0, 0, 0]	n/a	0	1	0	n/a	n/a	0.0	0	0	0	catFR2	0	R1074M
877.831	4.6	465681	STIM_ON	n/a	n/a	n/a	n/a	-999	0	8	[0, 0, 0]	n/a	1	1	4600	LW1	LW2	1000.0	50	230	300	catFR2	0	R1074M
878.038	1.6	465784	WORD	n/a	wordpools/wordpool_categorized_EN.txt	CALF	FarmAnimals	1	1	8	[0, 0, 0]	n/a	1	1	4600	LW1	LW2	1000.0	50	230	300	catFR2	0	R1074M
880.471	1.6	467000	WORD	n/a	wordpools/wordpool_categorized_EN.txt	HEN	FarmAnimals	2	0	8	[0, 0, 0]	n/a	1	1	4600	LW1	LW2	1000.0	50	230	300	catFR2	0	R1074M
882.989	1.6	468259	WORD	n/a	wordpools/wordpool_categorized_EN.txt	LEVEL	Tools	3	0	8	[0, 0, 0]	n/a	0	1	0	n/a	n/a	0.0	0	0	0	catFR2	0	R1074M
885.439	1.6	469484	WORD	n/a	wordpools/wordpool_categorized_EN.txt	SANDER	Tools	4	0	8	[0, 0, 0]	n/a	0	1	0	n/a	n/a	0.0	0	0	0	catFR2	0	R1074M
887.777	4.6	470653	STIM_ON	n/a	n/a	n/a	n/a	-999	0	8	[0, 0, 0]	n/a	1	1	4600	LW1	LW2	1000.0	50	230	300	catFR2	0	R1074M
887.99	1.6	470760	WORD	n/a	wordpools/wordpool_categorized_EN.txt	FOOT	BodyParts	5	0	8	[0, 0, 0]	n/a	1	1	4600	LW1	LW2	1000.0	50	230	300	catFR2	0	R1074M
890.373	1.6	471951	WORD	n/a	wordpools/wordpool_categorized_EN.txt	TOE	BodyParts	6	0	8	[0, 0, 0]	n/a	1	1	4600	LW1	LW2	1000.0	50	230	300	catFR2	0	R1074M
892.925	1.6	473227	WORD	n/a	wordpools/wordpool_categorized_EN.txt	PLIERS	Tools	7	0	8	[0, 0, 0]	n/a	0	1	0	n/a	n/a	0.0	0	0	0	catFR2	0	R1074M
895.391	1.6	474460	WORD	n/a	wordpools/wordpool_categorized_EN.txt	WRENCH	Tools	8	0	8	[0, 0, 0]	n/a	0	1	0	n/a	n/a	0.0	0	0	0	catFR2	0	R1074M
897.587	4.6	475558	STIM_ON	n/a	n/a	n/a	n/a	-999	0	8	[0, 0, 0]	n/a	1	1	4600	LW1	LW2	1000.0	50	230	300	catFR2	0	R1074M
897.791	1.6	475660	WORD	n/a	wordpools/wordpool_categorized_EN.txt	SHEEP	FarmAnimals	9	0	8	[0, 0, 0]	n/a	1	1	4600	LW1	LW2	1000.0	50	230	300	catFR2	0	R1074M
900.375	1.6	476952	WORD	n/a	wordpools/wordpool_categorized_EN.txt	CHICKEN	FarmAnimals	10	0	8	[0, 0, 0]	n/a	1	1	4600	LW1	LW2	1000.0	50	230	300	catFR2	0	R1074M
902.927	1.6	478228	WORD	n/a	wordpools/wordpool_categorized_EN.txt	HAND	BodyParts	11	0	8	[0, 0, 0]	n/a	0	1	0	n/a	n/a	0.0	0	0	0	catFR2	0	R1074M
905.51	1.6	479519	WORD	n/a	wordpools/wordpool_categorized_EN.txt	KNEE	BodyParts	12	0	8	[0, 0, 0]	n/a	0	1	0	n/a	n/a	0.0	0	0	0	catFR2	0	R1074M
907.127	0.001	480328	DISTRACT_START	n/a	n/a	n/a	n/a	-999	0	8	[0, 0, 0]	n/a	0	1	0	n/a	n/a	0.0	0	0	0	catFR2	0	R1074M
907.128	0.015	480328	START	n/a	n/a	n/a	n/a	-999	0	8	[-999, -999, -999]	n/a	0	1	0	n/a	n/a	0.0	0	0	0	catFR2	0	R1074M
907.143	5.335	480336	PROB	5.31	n/a	n/a	n/a	-999	0	8	[3, 1, 5]	9	0	1	0	n/a	n/a	0.0	0	0	0	catFR2	0	R1074M
912.478	8.301	483003	PROB	8.271	n/a	n/a	n/a	-999	0	8	[9, 8, 6]	23	0	1	0	n/a	n/a	0.0	0	0	0	catFR2	0	R1074M
920.779	7.778	487153	PROB	7.778	n/a	n/a	n/a	-999	0	8	[7, 6, 9]	22	0	1	0	n/a	n/a	0.0	0	0	0	catFR2	0	R1074M
928.557	0.007	491042	STOP	n/a	n/a	n/a	n/a	-999	0	8	[-999, -999, -999]	n/a	0	1	0	n/a	n/a	0.0	0	0	0	catFR2	0	R1074M
928.564	1.101	491046	DISTRACT_END	n/a	n/a	n/a	n/a	-999	0	8	[0, 0, 0]	n/a	0	1	0	n/a	n/a	0.0	0	0	0	catFR2	0	R1074M
929.665	13.514	491596	REC_START	n/a	n/a	n/a	n/a	-999	0	8	[0, 0, 0]	n/a	0	1	0	n/a	n/a	0.0	0	0	0	catFR2	0	R1074M
943.179	2.755	498353	REC_WORD	13.514	n/a	CALF	FarmAnimals	1	1	8	[0, 0, 0]	n/a	0	1	0	n/a	n/a	0.0	0	0	0	catFR2	0	R1074M
945.934	1.056	499730	REC_WORD	16.269	n/a	LEG	n/a	-999	0	8	[0, 0, 0]	n/a	0	1	0	n/a	n/a	0.0	0	0	0	catFR2	0	R1074M
946.99	12.684	500258	REC_WORD	17.325	n/a	ARM	n/a	-999	0	8	[0, 0, 0]	n/a	0	1	0	n/a	n/a	0.0	0	0	0	catFR2	0	R1074M
959.674	5.414	506600	REC_END	n/a	n/a	n/a	n/a	-999	0	8	[0, 0, 0]	n/a	0	1	0	n/a	n/a	0.0	0	0	0	catFR2	0	R1074M
965.088	0.0	509307	TRIAL	n/a	n/a	n/a	n/a	-999	0	9	[0, 0, 0]	n/a	0	1	0	n/a	n/a	0.0	0	0	0	catFR2	0	R1074M
965.088	10.0	509307	COUNTDOWN_START	n/a	n/a	n/a	n/a	-999	0	9	[0, 0, 0]	n/a	0	1	0	n/a	n/a	0.0	0	0	0	catFR2	0	R1074M
975.516	0.007	514520	COUNTDOWN_END	n/a	n/a	n/a	n/a	-999	0	9	[0, 0, 0]	n/a	0	1	0	n/a	n/a	0.0	0	0	0	catFR2	0	R1074M
975.523	1.6	514524	ORIENT	n/a	n/a	n/a	n/a	-999	0	9	[0, 0, 0]	n/a	0	1	0	n/a	n/a	0.0	0	0	0	catFR2	0	R1074M
979.007	1.6	516266	WORD	n/a	wordpools/wordpool_categorized_EN.txt	BASKETBALL	Toys	1	0	9	[0, 0, 0]	n/a	0	1	0	n/a	n/a	0.0	0	0	0	catFR2	0	R1074M
981.608	1.6	517566	WORD	n/a	wordpools/wordpool_categorized_EN.txt	DOLL	Toys	2	0	9	[0, 0, 0]	n/a	0	1	0	n/a	n/a	0.0	0	0	0	catFR2	0	R1074M
983.922	4.6	518723	STIM_ON	n/a	n/a	n/a	n/a	-999	0	9	[0, 0, 0]	n/a	1	1	4600	LW1	LW2	1000.0	50	230	300	catFR2	0	R1074M
984.124	1.6	518824	WORD	n/a	wordpools/wordpool_categorized_EN.txt	CUPCAKE	Desserts	3	0	9	[0, 0, 0]	n/a	1	1	4600	LW1	LW2	1000.0	50	230	300	catFR2	0	R1074M
986.609	1.6	520066	WORD	n/a	wordpools/wordpool_categorized_EN.txt	CHEESECAKE	Desserts	4	0	9	[0, 0, 0]	n/a	1	1	4600	LW1	LW2	1000.0	50	230	300	catFR2	0	R1074M
989.142	1.6	521333	WORD	n/a	wordpools/wordpool_categorized_EN.txt	PLUM	Fruit	5	0	9	[0, 0, 0]	n/a	0	1	0	n/a	n/a	0.0	0	0	0	catFR2	0	R1074M
991.526	1.6	522525	WORD	n/a	wordpools/wordpool_categorized_EN.txt	ORANGE	Fruit	6	0	9	[0, 0, 0]	n/a	0	1	0	n/a	n/a	0.0	0	0	0	catFR2	0	R1074M
993.913	4.6	523718	STIM_ON	n/a	n/a	n/a	n/a	-999	0	9	[0, 0, 0]	n/a	1	1	4600	LW1	LW2	1000.0	50	230	300	catFR2	0	R1074M
994.127	1.6	523825	WORD	n/a	wordpools/wordpool_categorized_EN.txt	MARBLES	Toys	7	0	9	[0, 0, 0]	n/a	1	1	4600	LW1	LW2	1000.0	50	230	300	catFR2	0	R1074M
996.544	1.6	525034	WORD	n/a	wordpools/wordpool_categorized_EN.txt	BALL	Toys	8	0	9	[0, 0, 0]	n/a	1	1	4600	LW1	LW2	1000.0	50	230	300	catFR2	0	R1074M
999.094	1.6	526309	WORD	n/a	wordpools/wordpool_categorized_EN.txt	LIME	Fruit	9	0	9	[0, 0, 0]	n/a	0	1	0	n/a	n/a	0.0	0	0	0	catFR2	0	R1074M
1001.645	1.6	527584	WORD	n/a	wordpools/wordpool_categorized_EN.txt	BLUEBERRY	Fruit	10	0	9	[0, 0, 0]	n/a	0	1	0	n/a	n/a	0.0	0	0	0	catFR2	0	R1074M
1003.874	4.6	528698	STIM_ON	n/a	n/a	n/a	n/a	-999	0	9	[0, 0, 0]	n/a	1	1	4600	LW1	LW2	1000.0	50	230	300	catFR2	0	R1074M
1004.079	1.6	528801	WORD	n/a	wordpools/wordpool_categorized_EN.txt	COOKIE	Desserts	11	0	9	[0, 0, 0]	n/a	1	1	4600	LW1	LW2	1000.0	50	230	300	catFR2	0	R1074M
1006.512	1.6	530017	WORD	n/a	wordpools/wordpool_categorized_EN.txt	MOUSSE	Desserts	12	0	9	[0, 0, 0]	n/a	1	1	4600	LW1	LW2	1000.0	50	230	300	catFR2	0	R1074M
1008.129	0.001	530826	DISTRACT_START	n/a	n/a	n/a	n/a	-999	0	9	[0, 0, 0]	n/a	0	1	0	n/a	n/a	0.0	0	0	0	catFR2	0	R1074M
1008.13	0.016	530826	START	n/a	n/a	n/a	n/a	-999	0	9	[-999, -999, -999]	n/a	0	1	0	n/a	n/a	0.0	0	0	0	catFR2	0	R1074M
1008.146	6.451	530834	PROB	6.427	n/a	n/a	n/a	-999	0	9	[8, 9, 2]	19	0	1	0	n/a	n/a	0.0	0	0	0	catFR2	0	R1074M
1014.597	5.518	534060	PROB	5.496	n/a	n/a	n/a	-999	0	9	[8, 2, 3]	13	0	1	0	n/a	n/a	0.0	0	0	0	catFR2	0	R1074M
1020.115	6.035	536819	PROB	6.002	n/a	n/a	n/a	-999	0	9	[1, 4, 4]	9	0	1	0	n/a	n/a	0.0	0	0	0	catFR2	0	R1074M
1026.15	6.239	539836	PROB	6.239	n/a	n/a	n/a	-999	0	9	[3, 4, 8]	15	0	1	0	n/a	n/a	0.0	0	0	0	catFR2	0	R1074M
1032.389	0.012	542955	STOP	n/a	n/a	n/a	n/a	-999	0	9	[-999, -999, -999]	n/a	0	1	0	n/a	n/a	0.0	0	0	0	catFR2	0	R1074M
1032.401	1.134	542961	DISTRACT_END	n/a	n/a	n/a	n/a	-999	0	9	[0, 0, 0]	n/a	0	1	0	n/a	n/a	0.0	0	0	0	catFR2	0	R1074M
1033.535	3.065	543528	REC_START	n/a	n/a	n/a	n/a	-999	0	9	[0, 0, 0]	n/a	0	1	0	n/a	n/a	0.0	0	0	0	catFR2	0	R1074M
1036.6	26.945	545061	REC_WORD_VV	3.065	n/a	<>	n/a	-999	0	9	[0, 0, 0]	n/a	0	1	0	n/a	n/a	0.0	0	0	0	catFR2	0	R1074M
1063.545	4.613	558532	REC_END	n/a	n/a	n/a	n/a	-999	0	9	[0, 0, 0]	n/a	0	1	0	n/a	n/a	0.0	0	0	0	catFR2	0	R1074M
1068.158	0.0	560839	TRIAL	n/a	n/a	n/a	n/a	-999	0	10	[0, 0, 0]	n/a	0	1	0	n/a	n/a	0.0	0	0	0	catFR2	0	R1074M
1068.158	10.0	560839	COUNTDOWN_START	n/a	n/a	n/a	n/a	-999	0	10	[0, 0, 0]	n/a	0	1	0	n/a	n/a	0.0	0	0	0	catFR2	0	R1074M
1078.586	0.007	566052	COUNTDOWN_END	n/a	n/a	n/a	n/a	-999	0	10	[0, 0, 0]	n/a	0	1	0	n/a	n/a	0.0	0	0	0	catFR2	0	R1074M
1078.593	1.6	566056	ORIENT	n/a	n/a	n/a	n/a	-999	0	10	[0, 0, 0]	n/a	0	1	0	n/a	n/a	0.0	0	0	0	catFR2	0	R1074M
1082.277	1.6	567898	WORD	n/a	wordpools/wordpool_categorized_EN.txt	SAW	Tools	1	0	10	[0, 0, 0]	n/a	0	1	0	n/a	n/a	0.0	0	0	0	catFR2	0	R1074M
1084.678	1.6	569098	WORD	n/a	wordpools/wordpool_categorized_EN.txt	SCREWDRIVER	Tools	2	0	10	[0, 0, 0]	n/a	0	1	0	n/a	n/a	0.0	0	0	0	catFR2	0	R1074M
1086.929	4.6	570224	STIM_ON	n/a	n/a	n/a	n/a	-999	0	10	[0, 0, 0]	n/a	1	1	4600	LW1	LW2	1000.0	50	230	300	catFR2	0	R1074M
1087.145	1.6	570332	WORD	n/a	wordpools/wordpool_categorized_EN.txt	CALCULATOR	Electronics	3	1	10	[0, 0, 0]	n/a	1	1	4600	LW1	LW2	1000.0	50	230	300	catFR2	0	R1074M
1089.729	1.6	571624	WORD	n/a	wordpools/wordpool_categorized_EN.txt	PRINTER	Electronics	4	0	10	[0, 0, 0]	n/a	1	1	4600	LW1	LW2	1000.0	50	230	300	catFR2	0	R1074M
1092.262	1.6	572890	WORD	n/a	wordpools/wordpool_categorized_EN.txt	PAPER	OfficeSupplies	5	0	10	[0, 0, 0]	n/a	0	1	0	n/a	n/a	0.0	0	0	0	catFR2	0	R1074M
1094.729	1.6	574123	WORD	n/a	wordpools/wordpool_categorized_EN.txt	NOTEBOOK	OfficeSupplies	6	0	10	[0, 0, 0]	n/a	0	1	0	n/a	n/a	0.0	0	0	0	catFR2	0	R1074M
1096.989	4.6	575253	STIM_ON	n/a	n/a	n/a	n/a	-999	0	10	[0, 0, 0]	n/a	1	1	4600	LW1	LW2	1000.0	50	230	300	catFR2	0	R1074M
1097.197	1.6	575357	WORD	n/a	wordpools/wordpool_categorized_EN.txt	HAMMER	Tools	7	0	10	[0, 0, 0]	n/a	1	1	4600	LW1	LW2	1000.0	50	230	300	catFR2	0	R1074M
1099.797	1.6	576657	WORD	n/a	wordpools/wordpool_categorized_EN.txt	AXE	Tools	8	0	10	[0, 0, 0]	n/a	1	1	4600	LW1	LW2	1000.0	50	230	300	catFR2	0	R1074M
1102.231	1.6	577874	WORD	n/a	wordpools/wordpool_categorized_EN.txt	RULER	OfficeSupplies	9	0	10	[0, 0, 0]	n/a	0	1	0	n/a	n/a	0.0	0	0	0	catFR2	0	R1074M
1104.715	1.6	579116	WORD	n/a	wordpools/wordpool_categorized_EN.txt	BINDER	OfficeSupplies	10	0	10	[0, 0, 0]	n/a	0	1	0	n/a	n/a	0.0	0	0	0	catFR2	0	R1074M
1107.129	4.6	580323	STIM_ON	n/a	n/a	n/a	n/a	-999	0	10	[0, 0, 0]	n/a	1	1	4600	LW1	LW2	1000.0	50	230	300	catFR2	0	R1074M
1107.349	1.6	580433	WORD	n/a	wordpools/wordpool_categorized_EN.txt	TELEVISION	Electronics	11	0	10	[0, 0, 0]	n/a	1	1	4600	LW1	LW2	1000.0	50	230	300	catFR2	0	R1074M
1109.799	1.6	581658	WORD	n/a	wordpools/wordpool_categorized_EN.txt	HEADPHONES	Electronics	12	1	10	[0, 0, 0]	n/a	1	1	4600	LW1	LW2	1000.0	50	230	300	catFR2	0	R1074M
1111.416	0.001	582466	DISTRACT_START	n/a	n/a	n/a	n/a	-999	0	10	[0, 0, 0]	n/a	0	1	0	n/a	n/a	0.0	0	0	0	catFR2	0	R1074M
1111.417	0.016	582467	START	n/a	n/a	n/a	n/a	-999	0	10	[-999, -999, -999]	n/a	0	1	0	n/a	n/a	0.0	0	0	0	catFR2	0	R1074M
1111.433	9.235	582475	PROB	9.212	n/a	n/a	n/a	-999	0	10	[9, 3, 8]	20	0	1	0	n/a	n/a	0.0	0	0	0	catFR2	0	R1074M
1120.668	20.177	587092	PROB	20.177	n/a	n/a	n/a	-999	0	10	[8, 8, 9]	25	0	1	0	n/a	n/a	0.0	0	0	0	catFR2	0	R1074M
1140.845	0.01	597180	STOP	n/a	n/a	n/a	n/a	-999	0	10	[-999, -999, -999]	n/a	0	1	0	n/a	n/a	0.0	0	0	0	catFR2	0	R1074M
1140.855	1.168	597185	DISTRACT_END	n/a	n/a	n/a	n/a	-999	0	10	[0, 0, 0]	n/a	0	1	0	n/a	n/a	0.0	0	0	0	catFR2	0	R1074M
1142.023	5.073	597769	REC_START	n/a	n/a	n/a	n/a	-999	0	10	[0, 0, 0]	n/a	0	1	0	n/a	n/a	0.0	0	0	0	catFR2	0	R1074M
1147.096	7.426	600305	REC_WORD	5.073	n/a	HEADPHONES	Electronics	12	1	10	[0, 0, 0]	n/a	0	1	0	n/a	n/a	0.0	0	0	0	catFR2	0	R1074M
1154.522	1.327	604018	REC_WORD	12.499	n/a	COLANDER	n/a	-999	0	10	[0, 0, 0]	n/a	0	1	0	n/a	n/a	0.0	0	0	0	catFR2	0	R1074M
1155.849	3.326	604682	REC_WORD	13.826	n/a	CALCULATOR	Electronics	3	1	10	[0, 0, 0]	n/a	0	1	0	n/a	n/a	0.0	0	0	0	catFR2	0	R1074M
1159.175	12.859	606345	REC_WORD	17.152	n/a	MICROPHONE	n/a	-999	0	10	[0, 0, 0]	n/a	0	1	0	n/a	n/a	0.0	0	0	0	catFR2	0	R1074M
1172.034	4.961	612774	REC_END	n/a	n/a	n/a	n/a	-999	0	10	[0, 0, 0]	n/a	0	1	0	n/a	n/a	0.0	0	0	0	catFR2	0	R1074M
1176.995	10.0	615254	COUNTDOWN_START	n/a	n/a	n/a	n/a	-999	0	11	[0, 0, 0]	n/a	0	1	0	n/a	n/a	0.0	0	0	0	catFR2	0	R1074M
1176.996	10.427	615255	TRIAL	n/a	n/a	n/a	n/a	-999	0	11	[0, 0, 0]	n/a	0	1	0	n/a	n/a	0.0	0	0	0	catFR2	0	R1074M
1187.423	0.008	620468	COUNTDOWN_END	n/a	n/a	n/a	n/a	-999	0	11	[0, 0, 0]	n/a	0	1	0	n/a	n/a	0.0	0	0	0	catFR2	0	R1074M
1187.431	1.6	620472	ORIENT	n/a	n/a	n/a	n/a	-999	0	11	[0, 0, 0]	n/a	0	1	0	n/a	n/a	0.0	0	0	0	catFR2	0	R1074M
1191.148	1.6	622330	WORD	n/a	wordpools/wordpool_categorized_EN.txt	EVERGREEN	Trees	1	0	11	[0, 0, 0]	n/a	0	1	0	n/a	n/a	0.0	0	0	0	catFR2	0	R1074M
1193.682	1.6	623597	WORD	n/a	wordpools/wordpool_categorized_EN.txt	CEDAR	Trees	2	0	11	[0, 0, 0]	n/a	0	1	0	n/a	n/a	0.0	0	0	0	catFR2	0	R1074M
1196.085	4.6	624799	STIM_ON	n/a	n/a	n/a	n/a	-999	0	11	[0, 0, 0]	n/a	1	1	4600	LW1	LW2	1000.0	50	230	300	catFR2	0	R1074M
1196.299	1.6	624906	WORD	n/a	wordpools/wordpool_categorized_EN.txt	DRILL	Tools	3	1	11	[0, 0, 0]	n/a	1	1	4600	LW1	LW2	1000.0	50	230	300	catFR2	0	R1074M
1198.8	1.6	626156	WORD	n/a	wordpools/wordpool_categorized_EN.txt	CROWBAR	Tools	4	0	11	[0, 0, 0]	n/a	1	1	4600	LW1	LW2	1000.0	50	230	300	catFR2	0	R1074M
1201.233	1.6	627372	WORD	n/a	wordpools/wordpool_categorized_EN.txt	BEAR	Zoo	5	1	11	[0, 0, 0]	n/a	0	1	0	n/a	n/a	0.0	0	0	0	catFR2	0	R1074M
1203.734	1.6	628623	WORD	n/a	wordpools/wordpool_categorized_EN.txt	CHIMPANZEE	Zoo	6	1	11	[0, 0, 0]	n/a	0	1	0	n/a	n/a	0.0	0	0	0	catFR2	0	R1074M
1206.107	4.6	629809	STIM_ON	n/a	n/a	n/a	n/a	-999	0	11	[0, 0, 0]	n/a	1	1	4600	LW1	LW2	1000.0	50	230	300	catFR2	0	R1074M
1206.318	1.6	629915	WORD	n/a	wordpools/wordpool_categorized_EN.txt	HICKORY	Trees	7	0	11	[0, 0, 0]	n/a	1	1	4600	LW1	LW2	1000.0	50	230	300	catFR2	0	R1074M
1208.718	1.6	631115	WORD	n/a	wordpools/wordpool_categorized_EN.txt	WILLOW	Trees	8	0	11	[0, 0, 0]	n/a	1	1	4600	LW1	LW2	1000.0	50	230	300	catFR2	0	R1074M
1211.252	1.6	632382	WORD	n/a	wordpools/wordpool_categorized_EN.txt	GIRAFFE	Zoo	9	1	11	[0, 0, 0]	n/a	0	1	0	n/a	n/a	0.0	0	0	0	catFR2	0	R1074M
1213.769	1.6	633640	WORD	n/a	wordpools/wordpool_categorized_EN.txt	MONKEY	Zoo	10	0	11	[0, 0, 0]	n/a	0	1	0	n/a	n/a	0.0	0	0	0	catFR2	0	R1074M
1215.995	4.6	634753	STIM_ON	n/a	n/a	n/a	n/a	-999	0	11	[0, 0, 0]	n/a	1	1	4600	LW1	LW2	1000.0	50	230	300	catFR2	0	R1074M
1216.203	1.6	634857	WORD	n/a	wordpools/wordpool_categorized_EN.txt	RATCHET	Tools	11	1	11	[0, 0, 0]	n/a	1	1	4600	LW1	LW2	1000.0	50	230	300	catFR2	0	R1074M
1218.67	1.6	636090	WORD	n/a	wordpools/wordpool_categorized_EN.txt	SHOVEL	Tools	12	0	11	[0, 0, 0]	n/a	1	1	4600	LW1	LW2	1000.0	50	230	300	catFR2	0	R1074M
1220.287	0.001	636899	DISTRACT_START	n/a	n/a	n/a	n/a	-999	0	11	[0, 0, 0]	n/a	0	1	0	n/a	n/a	0.0	0	0	0	catFR2	0	R1074M
1220.288	0.016	636899	START	n/a	n/a	n/a	n/a	-999	0	11	[-999, -999, -999]	n/a	0	1	0	n/a	n/a	0.0	0	0	0	catFR2	0	R1074M
1220.304	3.734	636907	PROB	3.709	n/a	n/a	n/a	-999	0	11	[1, 1, 1]	3	0	1	0	n/a	n/a	0.0	0	0	0	catFR2	0	R1074M
1224.038	8.518	638774	PROB	8.487	n/a	n/a	n/a	-999	0	11	[3, 1, 8]	12	0	1	0	n/a	n/a	0.0	0	0	0	catFR2	0	R1074M
1232.556	11.378	643033	PROB	11.378	n/a	n/a	n/a	-999	0	11	[6, 8, 3]	17	0	1	0	n/a	n/a	0.0	0	0	0	catFR2	0	R1074M
1243.934	0.009	648722	STOP	n/a	n/a	n/a	n/a	-999	0	11	[-999, -999, -999]	n/a	0	1	0	n/a	n/a	0.0	0	0	0	catFR2	0	R1074M
1243.943	1.05	648726	DISTRACT_END	n/a	n/a	n/a	n/a	-999	0	11	[0, 0, 0]	n/a	0	1	0	n/a	n/a	0.0	0	0	0	catFR2	0	R1074M
1244.993	1.605	649251	REC_START	n/a	n/a	n/a	n/a	-999	0	11	[0, 0, 0]	n/a	0	1	0	n/a	n/a	0.0	0	0	0	catFR2	0	R1074M
1246.598	0.871	650054	REC_WORD	1.605	n/a	BEAR	Zoo	5	1	11	[0, 0, 0]	n/a	0	1	0	n/a	n/a	0.0	0	0	0	catFR2	0	R1074M
1247.469	0.955	650489	REC_WORD	2.476	n/a	GIRAFFE	Zoo	9	1	11	[0, 0, 0]	n/a	0	1	0	n/a	n/a	0.0	0	0	0	catFR2	0	R1074M
1248.424	2.696	650967	REC_WORD	3.431	n/a	CHIMPANZEE	Zoo	6	1	11	[0, 0, 0]	n/a	0	1	0	n/a	n/a	0.0	0	0	0	catFR2	0	R1074M
1251.12	0.786	652314	REC_WORD	6.127	n/a	DRILL	Tools	3	1	11	[0, 0, 0]	n/a	0	1	0	n/a	n/a	0.0	0	0	0	catFR2	0	R1074M
1251.906	6.454	652707	REC_WORD	6.913	n/a	RATCHET	Tools	11	1	11	[0, 0, 0]	n/a	0	1	0	n/a	n/a	0.0	0	0	0	catFR2	0	R1074M
1258.36	16.642	655934	REC_WORD	13.367	n/a	SAW	n/a	-999	0	11	[0, 0, 0]	n/a	0	1	0	n/a	n/a	0.0	0	0	0	catFR2	0	R1074M
1275.002	5.247	664255	REC_END	n/a	n/a	n/a	n/a	-999	0	11	[0, 0, 0]	n/a	0	1	0	n/a	n/a	0.0	0	0	0	catFR2	0	R1074M
1280.249	0.0	666878	TRIAL	n/a	n/a	n/a	n/a	-999	0	12	[0, 0, 0]	n/a	0	1	0	n/a	n/a	0.0	0	0	0	catFR2	0	R1074M
1280.249	10.0	666878	COUNTDOWN_START	n/a	n/a	n/a	n/a	-999	0	12	[0, 0, 0]	n/a	0	1	0	n/a	n/a	0.0	0	0	0	catFR2	0	R1074M
1290.677	0.007	672092	COUNTDOWN_END	n/a	n/a	n/a	n/a	-999	0	12	[0, 0, 0]	n/a	0	1	0	n/a	n/a	0.0	0	0	0	catFR2	0	R1074M
1290.684	1.6	672095	ORIENT	n/a	n/a	n/a	n/a	-999	0	12	[0, 0, 0]	n/a	0	1	0	n/a	n/a	0.0	0	0	0	catFR2	0	R1074M
1294.368	1.6	673937	WORD	n/a	wordpools/wordpool_categorized_EN.txt	ROSE	Flowers	1	0	12	[0, 0, 0]	n/a	0	1	0	n/a	n/a	0.0	0	0	0	catFR2	0	R1074M
1296.769	1.6	675138	WORD	n/a	wordpools/wordpool_categorized_EN.txt	VIOLET	Flowers	2	0	12	[0, 0, 0]	n/a	0	1	0	n/a	n/a	0.0	0	0	0	catFR2	0	R1074M
1299.041	4.6	676274	STIM_ON	n/a	n/a	n/a	n/a	-999	0	12	[0, 0, 0]	n/a	1	1	4600	LW1	LW2	1000.0	50	230	300	catFR2	0	R1074M
1299.252	1.6	676379	WORD	n/a	wordpools/wordpool_categorized_EN.txt	PEN	OfficeSupplies	3	0	12	[0, 0, 0]	n/a	1	1	4600	LW1	LW2	1000.0	50	230	300	catFR2	0	R1074M
1301.636	1.6	677571	WORD	n/a	wordpools/wordpool_categorized_EN.txt	PENCIL	OfficeSupplies	4	0	12	[0, 0, 0]	n/a	1	1	4600	LW1	LW2	1000.0	50	230	300	catFR2	0	R1074M
1304.087	1.6	678796	WORD	n/a	wordpools/wordpool_categorized_EN.txt	MOTORCYCLE	Vehicles	5	0	12	[0, 0, 0]	n/a	0	1	0	n/a	n/a	0.0	0	0	0	catFR2	0	R1074M
1306.471	1.6	679988	WORD	n/a	wordpools/wordpool_categorized_EN.txt	MOPED	Vehicles	6	0	12	[0, 0, 0]	n/a	0	1	0	n/a	n/a	0.0	0	0	0	catFR2	0	R1074M
1308.662	4.6	681084	STIM_ON	n/a	n/a	n/a	n/a	-999	0	12	[0, 0, 0]	n/a	1	1	4600	LW1	LW2	1000.0	50	230	300	catFR2	0	R1074M
1308.871	1.6	681188	WORD	n/a	wordpools/wordpool_categorized_EN.txt	CARNATION	Flowers	7	0	12	[0, 0, 0]	n/a	1	1	4600	LW1	LW2	1000.0	50	230	300	catFR2	0	R1074M
1311.421	1.6	682463	WORD	n/a	wordpools/wordpool_categorized_EN.txt	LILAC	Flowers	8	0	12	[0, 0, 0]	n/a	1	1	4600	LW1	LW2	1000.0	50	230	300	catFR2	0	R1074M
1313.839	1.6	683672	WORD	n/a	wordpools/wordpool_categorized_EN.txt	JEEP	Vehicles	9	0	12	[0, 0, 0]	n/a	0	1	0	n/a	n/a	0.0	0	0	0	catFR2	0	R1074M
1316.389	1.6	684947	WORD	n/a	wordpools/wordpool_categorized_EN.txt	BOAT	Vehicles	10	0	12	[0, 0, 0]	n/a	0	1	0	n/a	n/a	0.0	0	0	0	catFR2	0	R1074M
1318.799	4.6	686152	STIM_ON	n/a	n/a	n/a	n/a	-999	0	12	[0, 0, 0]	n/a	1	1	4600	LW1	LW2	1000.0	50	230	300	catFR2	0	R1074M
1319.006	1.6	686256	WORD	n/a	wordpools/wordpool_categorized_EN.txt	MARKER	OfficeSupplies	11	0	12	[0, 0, 0]	n/a	1	1	4600	LW1	LW2	1000.0	50	230	300	catFR2	0	R1074M
1321.607	1.6	687556	WORD	n/a	wordpools/wordpool_categorized_EN.txt	ERASER	OfficeSupplies	12	0	12	[0, 0, 0]	n/a	1	1	4600	LW1	LW2	1000.0	50	230	300	catFR2	0	R1074M
1323.224	0.001	688364	DISTRACT_START	n/a	n/a	n/a	n/a	-999	0	12	[0, 0, 0]	n/a	0	1	0	n/a	n/a	0.0	0	0	0	catFR2	0	R1074M
1323.225	0.015	688365	START	n/a	n/a	n/a	n/a	-999	0	12	[-999, -999, -999]	n/a	0	1	0	n/a	n/a	0.0	0	0	0	catFR2	0	R1074M
1323.24	21.365	688372	PROB	21.365	n/a	n/a	n/a	-999	0	12	[7, 7, 7]	21	0	1	0	n/a	n/a	0.0	0	0	0	catFR2	0	R1074M
1344.605	0.006	699054	STOP	n/a	n/a	n/a	n/a	-999	0	12	[-999, -999, -999]	n/a	0	1	0	n/a	n/a	0.0	0	0	0	catFR2	0	R1074M
1344.611	1.151	699057	DISTRACT_END	n/a	n/a	n/a	n/a	-999	0	12	[0, 0, 0]	n/a	0	1	0	n/a	n/a	0.0	0	0	0	catFR2	0	R1074M
1345.762	2.438	699633	REC_START	n/a	n/a	n/a	n/a	-999	0	12	[0, 0, 0]	n/a	0	1	0	n/a	n/a	0.0	0	0	0	catFR2	0	R1074M
1348.2	27.572	700852	REC_WORD_VV	2.438	n/a	<>	n/a	-999	0	12	[0, 0, 0]	n/a	0	1	0	n/a	n/a	0.0	0	0	0	catFR2	0	R1074M
1375.772	5.796	714637	REC_END	n/a	n/a	n/a	n/a	-999	0	12	[0, 0, 0]	n/a	0	1	0	n/a	n/a	0.0	0	0	0	catFR2	0	R1074M
1381.568	10.0	717535	COUNTDOWN_START	n/a	n/a	n/a	n/a	-999	0	13	[0, 0, 0]	n/a	0	1	0	n/a	n/a	0.0	0	0	0	catFR2	0	R1074M
1381.569	10.427	717535	TRIAL	n/a	n/a	n/a	n/a	-999	0	13	[0, 0, 0]	n/a	0	1	0	n/a	n/a	0.0	0	0	0	catFR2	0	R1074M
1391.996	0.008	722748	COUNTDOWN_END	n/a	n/a	n/a	n/a	-999	0	13	[0, 0, 0]	n/a	0	1	0	n/a	n/a	0.0	0	0	0	catFR2	0	R1074M
1392.004	1.6	722752	ORIENT	n/a	n/a	n/a	n/a	-999	0	13	[0, 0, 0]	n/a	0	1	0	n/a	n/a	0.0	0	0	0	catFR2	0	R1074M
1395.538	1.6	724519	WORD	n/a	wordpools/wordpool_categorized_EN.txt	COLA	Beverages	1	0	13	[0, 0, 0]	n/a	0	1	0	n/a	n/a	0.0	0	0	0	catFR2	0	R1074M
1398.055	1.6	725778	WORD	n/a	wordpools/wordpool_categorized_EN.txt	SODA	Beverages	2	0	13	[0, 0, 0]	n/a	0	1	0	n/a	n/a	0.0	0	0	0	catFR2	0	R1074M
1400.42	4.6	726960	STIM_ON	n/a	n/a	n/a	n/a	-999	0	13	[0, 0, 0]	n/a	1	1	4600	LW1	LW2	1000.0	50	230	300	catFR2	0	R1074M
1400.622	1.6	727061	WORD	n/a	wordpools/wordpool_categorized_EN.txt	LOBSTER	OceanAnimals	3	1	13	[0, 0, 0]	n/a	1	1	4600	LW1	LW2	1000.0	50	230	300	catFR2	0	R1074M
1403.173	1.6	728337	WORD	n/a	wordpools/wordpool_categorized_EN.txt	DOLPHIN	OceanAnimals	4	0	13	[0, 0, 0]	n/a	1	1	4600	LW1	LW2	1000.0	50	230	300	catFR2	0	R1074M
1405.69	1.6	729595	WORD	n/a	wordpools/wordpool_categorized_EN.txt	RECLINER	Furniture	5	0	13	[0, 0, 0]	n/a	0	1	0	n/a	n/a	0.0	0	0	0	catFR2	0	R1074M
1408.14	1.6	730820	WORD	n/a	wordpools/wordpool_categorized_EN.txt	COUCH	Furniture	6	0	13	[0, 0, 0]	n/a	0	1	0	n/a	n/a	0.0	0	0	0	catFR2	0	R1074M
1410.538	4.6	732019	STIM_ON	n/a	n/a	n/a	n/a	-999	0	13	[0, 0, 0]	n/a	1	1	4600	LW1	LW2	1000.0	50	230	300	catFR2	0	R1074M
1410.74	1.6	732120	WORD	n/a	wordpools/wordpool_categorized_EN.txt	JELLYFISH	OceanAnimals	7	0	13	[0, 0, 0]	n/a	1	1	4600	LW1	LW2	1000.0	50	230	300	catFR2	0	R1074M
1413.291	1.6	733395	WORD	n/a	wordpools/wordpool_categorized_EN.txt	OCTOPUS	OceanAnimals	8	0	13	[0, 0, 0]	n/a	1	1	4600	LW1	LW2	1000.0	50	230	300	catFR2	0	R1074M
1415.858	1.6	734679	WORD	n/a	wordpools/wordpool_categorized_EN.txt	LEMONADE	Beverages	9	0	13	[0, 0, 0]	n/a	0	1	0	n/a	n/a	0.0	0	0	0	catFR2	0	R1074M
1418.359	1.6	735929	WORD	n/a	wordpools/wordpool_categorized_EN.txt	MILK	Beverages	10	0	13	[0, 0, 0]	n/a	0	1	0	n/a	n/a	0.0	0	0	0	catFR2	0	R1074M
1420.591	4.6	737045	STIM_ON	n/a	n/a	n/a	n/a	-999	0	13	[0, 0, 0]	n/a	1	1	4600	LW1	LW2	1000.0	50	230	300	catFR2	0	R1074M
1420.792	1.6	737146	WORD	n/a	wordpools/wordpool_categorized_EN.txt	CABINET	Furniture	11	0	13	[0, 0, 0]	n/a	1	1	4600	LW1	LW2	1000.0	50	230	300	catFR2	0	R1074M
1423.326	1.6	738413	WORD	n/a	wordpools/wordpool_categorized_EN.txt	TABLE	Furniture	12	0	13	[0, 0, 0]	n/a	1	1	4600	LW1	LW2	1000.0	50	230	300	catFR2	0	R1074M
1424.927	0.001	739213	DISTRACT_START	n/a	n/a	n/a	n/a	-999	0	13	[0, 0, 0]	n/a	0	1	0	n/a	n/a	0.0	0	0	0	catFR2	0	R1074M
1424.928	0.016	739214	START	n/a	n/a	n/a	n/a	-999	0	13	[-999, -999, -999]	n/a	0	1	0	n/a	n/a	0.0	0	0	0	catFR2	0	R1074M
1424.944	6.301	739222	PROB	6.277	n/a	n/a	n/a	-999	0	13	[1, 4, 7]	12	0	1	0	n/a	n/a	0.0	0	0	0	catFR2	0	R1074M
1431.245	5.234	742372	PROB	5.2	n/a	n/a	n/a	-999	0	13	[7, 1, 9]	17	0	1	0	n/a	n/a	0.0	0	0	0	catFR2	0	R1074M
1436.479	4.334	744989	PROB	4.31	n/a	n/a	n/a	-999	0	13	[2, 2, 7]	11	0	1	0	n/a	n/a	0.0	0	0	0	catFR2	0	R1074M
1440.813	5.408	747156	PROB	5.408	n/a	n/a	n/a	-999	0	13	[9, 4, 1]	14	0	1	0	n/a	n/a	0.0	0	0	0	catFR2	0	R1074M
1446.221	0.01	749859	STOP	n/a	n/a	n/a	n/a	-999	0	13	[-999, -999, -999]	n/a	0	1	0	n/a	n/a	0.0	0	0	0	catFR2	0	R1074M
1446.231	1.217	749864	DISTRACT_END	n/a	n/a	n/a	n/a	-999	0	13	[0, 0, 0]	n/a	0	1	0	n/a	n/a	0.0	0	0	0	catFR2	0	R1074M
1447.448	4.336	750473	REC_START	n/a	n/a	n/a	n/a	-999	0	13	[0, 0, 0]	n/a	0	1	0	n/a	n/a	0.0	0	0	0	catFR2	0	R1074M
1451.784	25.678	752641	REC_WORD	4.336	n/a	LOBSTER	OceanAnimals	3	1	13	[0, 0, 0]	n/a	0	1	0	n/a	n/a	0.0	0	0	0	catFR2	0	R1074M
1477.462	13.211	765479	REC_END	n/a	n/a	n/a	n/a	-999	0	13	[0, 0, 0]	n/a	0	1	0	n/a	n/a	0.0	0	0	0	catFR2	0	R1074M
1490.673	0.0	772084	TRIAL	n/a	n/a	n/a	n/a	-999	0	14	[0, 0, 0]	n/a	0	1	0	n/a	n/a	0.0	0	0	0	catFR2	0	R1074M
1490.673	10.0	772084	COUNTDOWN_START	n/a	n/a	n/a	n/a	-999	0	14	[0, 0, 0]	n/a	0	1	0	n/a	n/a	0.0	0	0	0	catFR2	0	R1074M
1501.101	0.007	777298	COUNTDOWN_END	n/a	n/a	n/a	n/a	-999	0	14	[0, 0, 0]	n/a	0	1	0	n/a	n/a	0.0	0	0	0	catFR2	0	R1074M
1501.108	1.6	777301	ORIENT	n/a	n/a	n/a	n/a	-999	0	14	[0, 0, 0]	n/a	0	1	0	n/a	n/a	0.0	0	0	0	catFR2	0	R1074M
1504.511	4.6	779003	STIM_ON	n/a	n/a	n/a	n/a	-999	0	14	[0, 0, 0]	n/a	1	1	4600	LW1	LW2	1000.0	50	230	300	catFR2	0	R1074M
1504.726	1.6	779110	WORD	n/a	wordpools/wordpool_categorized_EN.txt	DOOR	Building	1	0	14	[0, 0, 0]	n/a	1	1	4600	LW1	LW2	1000.0	50	230	300	catFR2	0	R1074M
1507.293	1.6	780394	WORD	n/a	wordpools/wordpool_categorized_EN.txt	FOUNDATION	Building	2	0	14	[0, 0, 0]	n/a	1	1	4600	LW1	LW2	1000.0	50	230	300	catFR2	0	R1074M
1509.743	1.6	781619	WORD	n/a	wordpools/wordpool_categorized_EN.txt	CELLO	Instruments	3	0	14	[0, 0, 0]	n/a	0	1	0	n/a	n/a	0.0	0	0	0	catFR2	0	R1074M
1512.294	1.6	782894	WORD	n/a	wordpools/wordpool_categorized_EN.txt	DRUM	Instruments	4	0	14	[0, 0, 0]	n/a	0	1	0	n/a	n/a	0.0	0	0	0	catFR2	0	R1074M
1514.659	4.6	784076	STIM_ON	n/a	n/a	n/a	n/a	-999	0	14	[0, 0, 0]	n/a	1	1	4600	LW1	LW2	1000.0	50	230	300	catFR2	0	R1074M
1514.861	1.6	784177	WORD	n/a	wordpools/wordpool_categorized_EN.txt	STRAINER	KitchenTools	5	0	14	[0, 0, 0]	n/a	1	1	4600	LW1	LW2	1000.0	50	230	300	catFR2	0	R1074M
1517.378	1.6	785436	WORD	n/a	wordpools/wordpool_categorized_EN.txt	GRATER	KitchenTools	6	0	14	[0, 0, 0]	n/a	1	1	4600	LW1	LW2	1000.0	50	230	300	catFR2	0	R1074M
1520.012	1.6	786753	WORD	n/a	wordpools/wordpool_categorized_EN.txt	PIANO	Instruments	7	0	14	[0, 0, 0]	n/a	0	1	0	n/a	n/a	0.0	0	0	0	catFR2	0	R1074M
1522.496	1.6	787995	WORD	n/a	wordpools/wordpool_categorized_EN.txt	ORGAN	Instruments	8	0	14	[0, 0, 0]	n/a	0	1	0	n/a	n/a	0.0	0	0	0	catFR2	0	R1074M
1524.704	4.6	789099	STIM_ON	n/a	n/a	n/a	n/a	-999	0	14	[0, 0, 0]	n/a	1	1	4600	LW1	LW2	1000.0	50	230	300	catFR2	0	R1074M
1524.914	1.6	789204	WORD	n/a	wordpools/wordpool_categorized_EN.txt	FLOOR	Building	9	0	14	[0, 0, 0]	n/a	1	1	4600	LW1	LW2	1000.0	50	230	300	catFR2	0	R1074M
1527.463	1.6	790478	WORD	n/a	wordpools/wordpool_categorized_EN.txt	WINDOW	Building	10	0	14	[0, 0, 0]	n/a	1	1	4600	LW1	LW2	1000.0	50	230	300	catFR2	0	R1074M
1529.964	1.6	791729	WORD	n/a	wordpools/wordpool_categorized_EN.txt	SPOON	KitchenTools	11	0	14	[0, 0, 0]	n/a	0	1	0	n/a	n/a	0.0	0	0	0	catFR2	0	R1074M
1532.564	1.6	793028	WORD	n/a	wordpools/wordpool_categorized_EN.txt	KNIFE	KitchenTools	12	0	14	[0, 0, 0]	n/a	0	1	0	n/a	n/a	0.0	0	0	0	catFR2	0	R1074M
1534.181	0.001	793837	DISTRACT_START	n/a	n/a	n/a	n/a	-999	0	14	[0, 0, 0]	n/a	0	1	0	n/a	n/a	0.0	0	0	0	catFR2	0	R1074M
1534.182	0.016	793837	START	n/a	n/a	n/a	n/a	-999	0	14	[-999, -999, -999]	n/a	0	1	0	n/a	n/a	0.0	0	0	0	catFR2	0	R1074M
1534.198	14.053	793845	PROB	14.031	n/a	n/a	n/a	-999	0	14	[8, 6, 4]	18	0	1	0	n/a	n/a	0.0	0	0	0	catFR2	0	R1074M
1548.251	4.267	800871	PROB	4.242	n/a	n/a	n/a	-999	0	14	[1, 2, 4]	7	0	1	0	n/a	n/a	0.0	0	0	0	catFR2	0	R1074M
1552.518	7.551	803005	PROB	7.551	n/a	n/a	n/a	-999	0	14	[7, 9, 7]	23	0	1	0	n/a	n/a	0.0	0	0	0	catFR2	0	R1074M
1560.069	0.017	806780	STOP	n/a	n/a	n/a	n/a	-999	0	14	[-999, -999, -999]	n/a	0	1	0	n/a	n/a	0.0	0	0	0	catFR2	0	R1074M
1560.086	1.068	806789	DISTRACT_END	n/a	n/a	n/a	n/a	-999	0	14	[0, 0, 0]	n/a	0	1	0	n/a	n/a	0.0	0	0	0	catFR2	0	R1074M
1561.154	2.043	807323	REC_START	n/a	n/a	n/a	n/a	-999	0	14	[0, 0, 0]	n/a	0	1	0	n/a	n/a	0.0	0	0	0	catFR2	0	R1074M
1563.197	27.967	808344	REC_WORD_VV	2.043	n/a	<>	n/a	-999	0	14	[0, 0, 0]	n/a	0	1	0	n/a	n/a	0.0	0	0	0	catFR2	0	R1074M
1591.164	26.667	822327	REC_END	n/a	n/a	n/a	n/a	-999	0	14	[0, 0, 0]	n/a	0	1	0	n/a	n/a	0.0	0	0	0	catFR2	0	R1074M
1617.831	0.0	835660	TRIAL	n/a	n/a	n/a	n/a	-999	0	15	[0, 0, 0]	n/a	0	0	0	n/a	n/a	0.0	0	0	0	catFR2	0	R1074M
1617.831	10.0	835660	COUNTDOWN_START	n/a	n/a	n/a	n/a	-999	0	15	[0, 0, 0]	n/a	0	0	0	n/a	n/a	0.0	0	0	0	catFR2	0	R1074M
1628.259	0.007	840873	COUNTDOWN_END	n/a	n/a	n/a	n/a	-999	0	15	[0, 0, 0]	n/a	0	0	0	n/a	n/a	0.0	0	0	0	catFR2	0	R1074M
1628.266	1.6	840877	ORIENT	n/a	n/a	n/a	n/a	-999	0	15	[0, 0, 0]	n/a	0	0	0	n/a	n/a	0.0	0	0	0	catFR2	0	R1074M
1631.75	1.6	842619	WORD	n/a	wordpools/wordpool_categorized_EN.txt	TEA	Beverages	1	1	15	[0, 0, 0]	n/a	0	0	0	n/a	n/a	0.0	0	0	0	catFR2	0	R1074M
1634.351	1.6	843919	WORD	n/a	wordpools/wordpool_categorized_EN.txt	JUICE	Beverages	2	1	15	[0, 0, 0]	n/a	0	0	0	n/a	n/a	0.0	0	0	0	catFR2	0	R1074M
1636.834	1.6	845160	WORD	n/a	wordpools/wordpool_categorized_EN.txt	ROACH	Insects	3	0	15	[0, 0, 0]	n/a	0	0	0	n/a	n/a	0.0	0	0	0	catFR2	0	R1074M
1639.435	1.6	846461	WORD	n/a	wordpools/wordpool_categorized_EN.txt	MOTH	Insects	4	0	15	[0, 0, 0]	n/a	0	0	0	n/a	n/a	0.0	0	0	0	catFR2	0	R1074M
1641.919	1.6	847703	WORD	n/a	wordpools/wordpool_categorized_EN.txt	ORANGUTAN	Zoo	5	1	15	[0, 0, 0]	n/a	0	0	0	n/a	n/a	0.0	0	0	0	catFR2	0	R1074M
1644.336	1.6	848911	WORD	n/a	wordpools/wordpool_categorized_EN.txt	TIGER	Zoo	6	0	15	[0, 0, 0]	n/a	0	0	0	n/a	n/a	0.0	0	0	0	catFR2	0	R1074M
1646.887	1.6	850187	WORD	n/a	wordpools/wordpool_categorized_EN.txt	BEE	Insects	7	0	15	[0, 0, 0]	n/a	0	0	0	n/a	n/a	0.0	0	0	0	catFR2	0	R1074M
1649.453	1.6	851470	WORD	n/a	wordpools/wordpool_categorized_EN.txt	ANT	Insects	8	1	15	[0, 0, 0]	n/a	0	0	0	n/a	n/a	0.0	0	0	0	catFR2	0	R1074M
1651.888	1.6	852687	WORD	n/a	wordpools/wordpool_categorized_EN.txt	COFFEE	Beverages	9	0	15	[0, 0, 0]	n/a	0	0	0	n/a	n/a	0.0	0	0	0	catFR2	0	R1074M
1654.271	1.6	853878	WORD	n/a	wordpools/wordpool_categorized_EN.txt	CIDER	Beverages	10	0	15	[0, 0, 0]	n/a	0	0	0	n/a	n/a	0.0	0	0	0	catFR2	0	R1074M
1656.672	1.6	855079	WORD	n/a	wordpools/wordpool_categorized_EN.txt	ELEPHANT	Zoo	11	0	15	[0, 0, 0]	n/a	0	0	0	n/a	n/a	0.0	0	0	0	catFR2	0	R1074M
1659.189	1.6	856337	WORD	n/a	wordpools/wordpool_categorized_EN.txt	GORILLA	Zoo	12	0	15	[0, 0, 0]	n/a	0	0	0	n/a	n/a	0.0	0	0	0	catFR2	0	R1074M
1660.806	0.001	857146	DISTRACT_START	n/a	n/a	n/a	n/a	-999	0	15	[0, 0, 0]	n/a	0	0	0	n/a	n/a	0.0	0	0	0	catFR2	0	R1074M
1660.807	0.015	857146	START	n/a	n/a	n/a	n/a	-999	0	15	[-999, -999, -999]	n/a	0	0	0	n/a	n/a	0.0	0	0	0	catFR2	0	R1074M
1660.822	5.918	857154	PROB	5.887	n/a	n/a	n/a	-999	0	15	[1, 2, 3]	6	0	0	0	n/a	n/a	0.0	0	0	0	catFR2	0	R1074M
1666.74	4.668	860113	PROB	4.633	n/a	n/a	n/a	-999	0	15	[8, 1, 1]	10	0	0	0	n/a	n/a	0.0	0	0	0	catFR2	0	R1074M
1671.408	7.801	862446	PROB	7.781	n/a	n/a	n/a	-999	0	15	[5, 7, 6]	18	0	0	0	n/a	n/a	0.0	0	0	0	catFR2	0	R1074M
1679.209	7.116	866347	PROB	7.116	n/a	n/a	n/a	-999	0	15	[5, 2, 6]	13	0	0	0	n/a	n/a	0.0	0	0	0	catFR2	0	R1074M
1686.325	0.019	869905	STOP	n/a	n/a	n/a	n/a	-999	0	15	[-999, -999, -999]	n/a	0	0	0	n/a	n/a	0.0	0	0	0	catFR2	0	R1074M
1686.344	1.218	869914	DISTRACT_END	n/a	n/a	n/a	n/a	-999	0	15	[0, 0, 0]	n/a	0	0	0	n/a	n/a	0.0	0	0	0	catFR2	0	R1074M
1687.562	2.719	870523	REC_START	n/a	n/a	n/a	n/a	-999	0	15	[0, 0, 0]	n/a	0	0	0	n/a	n/a	0.0	0	0	0	catFR2	0	R1074M
1690.281	0.535	871882	REC_WORD	2.719	n/a	TEA	Beverages	1	1	15	[0, 0, 0]	n/a	0	0	0	n/a	n/a	0.0	0	0	0	catFR2	0	R1074M
1690.816	4.627	872150	REC_WORD	3.254	n/a	JUICE	Beverages	2	1	15	[0, 0, 0]	n/a	0	0	0	n/a	n/a	0.0	0	0	0	catFR2	0	R1074M
1695.443	1.315	874463	REC_WORD	7.881	n/a	ORANGUTAN	Zoo	5	1	15	[0, 0, 0]	n/a	0	0	0	n/a	n/a	0.0	0	0	0	catFR2	0	R1074M
1696.758	20.814	875121	REC_WORD	9.196	n/a	ANT	Insects	8	1	15	[0, 0, 0]	n/a	0	0	0	n/a	n/a	0.0	0	0	0	catFR2	0	R1074M
1717.572	13.348	885527	REC_END	n/a	n/a	n/a	n/a	-999	0	15	[0, 0, 0]	n/a	0	0	0	n/a	n/a	0.0	0	0	0	catFR2	0	R1074M
1730.92	0.0	892201	TRIAL	n/a	n/a	n/a	n/a	-999	0	16	[0, 0, 0]	n/a	0	1	0	n/a	n/a	0.0	0	0	0	catFR2	0	R1074M
1730.92	10.0	892201	COUNTDOWN_START	n/a	n/a	n/a	n/a	-999	0	16	[0, 0, 0]	n/a	0	1	0	n/a	n/a	0.0	0	0	0	catFR2	0	R1074M
1741.348	0.007	897415	COUNTDOWN_END	n/a	n/a	n/a	n/a	-999	0	16	[0, 0, 0]	n/a	0	1	0	n/a	n/a	0.0	0	0	0	catFR2	0	R1074M
1741.355	1.6	897418	ORIENT	n/a	n/a	n/a	n/a	-999	0	16	[0, 0, 0]	n/a	0	1	0	n/a	n/a	0.0	0	0	0	catFR2	0	R1074M
1745.046	4.6	899263	STIM_ON	n/a	n/a	n/a	n/a	-999	0	16	[0, 0, 0]	n/a	1	1	4600	LW1	LW2	1000.0	50	230	300	catFR2	0	R1074M
1745.255	1.6	899368	WORD	n/a	wordpools/wordpool_categorized_EN.txt	GUITAR	Instruments	1	0	16	[0, 0, 0]	n/a	1	1	4600	LW1	LW2	1000.0	50	230	300	catFR2	0	R1074M
1747.756	1.6	900618	WORD	n/a	wordpools/wordpool_categorized_EN.txt	FLUTE	Instruments	2	0	16	[0, 0, 0]	n/a	1	1	4600	LW1	LW2	1000.0	50	230	300	catFR2	0	R1074M
1750.223	1.6	901852	WORD	n/a	wordpools/wordpool_categorized_EN.txt	DAISY	Flowers	3	0	16	[0, 0, 0]	n/a	0	1	0	n/a	n/a	0.0	0	0	0	catFR2	0	R1074M
1752.657	1.6	903069	WORD	n/a	wordpools/wordpool_categorized_EN.txt	SUNFLOWER	Flowers	4	0	16	[0, 0, 0]	n/a	0	1	0	n/a	n/a	0.0	0	0	0	catFR2	0	R1074M
1754.973	4.6	904227	STIM_ON	n/a	n/a	n/a	n/a	-999	0	16	[0, 0, 0]	n/a	1	1	4600	LW1	LW2	1000.0	50	230	300	catFR2	0	R1074M
1755.191	1.6	904336	WORD	n/a	wordpools/wordpool_categorized_EN.txt	BROWNIES	Desserts	5	0	16	[0, 0, 0]	n/a	1	1	4600	LW1	LW2	1000.0	50	230	300	catFR2	0	R1074M
1757.708	1.6	905594	WORD	n/a	wordpools/wordpool_categorized_EN.txt	JELLO	Desserts	6	0	16	[0, 0, 0]	n/a	1	1	4600	LW1	LW2	1000.0	50	230	300	catFR2	0	R1074M
1760.292	1.6	906886	WORD	n/a	wordpools/wordpool_categorized_EN.txt	DAFFODIL	Flowers	7	0	16	[0, 0, 0]	n/a	0	1	0	n/a	n/a	0.0	0	0	0	catFR2	0	R1074M
1762.742	1.6	908111	WORD	n/a	wordpools/wordpool_categorized_EN.txt	MARIGOLD	Flowers	8	1	16	[0, 0, 0]	n/a	0	1	0	n/a	n/a	0.0	0	0	0	catFR2	0	R1074M
1765.091	4.6	909285	STIM_ON	n/a	n/a	n/a	n/a	-999	0	16	[0, 0, 0]	n/a	1	1	4600	LW1	LW2	1000.0	50	230	300	catFR2	0	R1074M
1765.292	1.6	909386	WORD	n/a	wordpools/wordpool_categorized_EN.txt	BASS	Instruments	9	0	16	[0, 0, 0]	n/a	1	1	4600	LW1	LW2	1000.0	50	230	300	catFR2	0	R1074M
1767.726	1.6	910603	WORD	n/a	wordpools/wordpool_categorized_EN.txt	TUBA	Instruments	10	0	16	[0, 0, 0]	n/a	1	1	4600	LW1	LW2	1000.0	50	230	300	catFR2	0	R1074M
1770.31	1.6	911895	WORD	n/a	wordpools/wordpool_categorized_EN.txt	PASTRY	Desserts	11	0	16	[0, 0, 0]	n/a	0	1	0	n/a	n/a	0.0	0	0	0	catFR2	0	R1074M
1772.844	1.6	913162	WORD	n/a	wordpools/wordpool_categorized_EN.txt	COBBLER	Desserts	12	1	16	[0, 0, 0]	n/a	0	1	0	n/a	n/a	0.0	0	0	0	catFR2	0	R1074M
1774.461	0.001	913970	DISTRACT_START	n/a	n/a	n/a	n/a	-999	0	16	[0, 0, 0]	n/a	0	1	0	n/a	n/a	0.0	0	0	0	catFR2	0	R1074M
1774.462	0.016	913971	START	n/a	n/a	n/a	n/a	-999	0	16	[-999, -999, -999]	n/a	0	1	0	n/a	n/a	0.0	0	0	0	catFR2	0	R1074M
1774.478	6.084	913979	PROB	6.063	n/a	n/a	n/a	-999	0	16	[9, 9, 3]	21	0	1	0	n/a	n/a	0.0	0	0	0	catFR2	0	R1074M
1780.562	5.418	917020	PROB	5.396	n/a	n/a	n/a	-999	0	16	[6, 4, 3]	13	0	1	0	n/a	n/a	0.0	0	0	0	catFR2	0	R1074M
1785.98	10.281	919729	PROB	10.281	n/a	n/a	n/a	-999	0	16	[5, 8, 4]	17	0	1	0	n/a	n/a	0.0	0	0	0	catFR2	0	R1074M
1796.261	0.004	924869	STOP	n/a	n/a	n/a	n/a	-999	0	16	[-999, -999, -999]	n/a	0	1	0	n/a	n/a	0.0	0	0	0	catFR2	0	R1074M
1796.265	1.168	924871	DISTRACT_END	n/a	n/a	n/a	n/a	-999	0	16	[0, 0, 0]	n/a	0	1	0	n/a	n/a	0.0	0	0	0	catFR2	0	R1074M
1797.433	1.569	925455	REC_START	n/a	n/a	n/a	n/a	-999	0	16	[0, 0, 0]	n/a	0	1	0	n/a	n/a	0.0	0	0	0	catFR2	0	R1074M
1799.002	0.865	926240	REC_WORD	1.569	n/a	MARIGOLD	Flowers	8	1	16	[0, 0, 0]	n/a	0	1	0	n/a	n/a	0.0	0	0	0	catFR2	0	R1074M
1799.867	4.134	926672	REC_WORD	2.434	n/a	FLOWER	n/a	-999	0	16	[0, 0, 0]	n/a	0	1	0	n/a	n/a	0.0	0	0	0	catFR2	0	R1074M
1804.001	23.442	928739	REC_WORD	6.568	n/a	COBBLER	Desserts	12	1	16	[0, 0, 0]	n/a	0	1	0	n/a	n/a	0.0	0	0	0	catFR2	0	R1074M
1827.443	9.213	940460	REC_END	n/a	n/a	n/a	n/a	-999	0	16	[0, 0, 0]	n/a	0	1	0	n/a	n/a	0.0	0	0	0	catFR2	0	R1074M
1836.656	10.0	945066	COUNTDOWN_START	n/a	n/a	n/a	n/a	-999	0	17	[0, 0, 0]	n/a	0	1	0	n/a	n/a	0.0	0	0	0	catFR2	0	R1074M
1836.657	10.427	945066	TRIAL	n/a	n/a	n/a	n/a	-999	0	17	[0, 0, 0]	n/a	0	1	0	n/a	n/a	0.0	0	0	0	catFR2	0	R1074M
1847.084	0.008	950280	COUNTDOWN_END	n/a	n/a	n/a	n/a	-999	0	17	[0, 0, 0]	n/a	0	1	0	n/a	n/a	0.0	0	0	0	catFR2	0	R1074M
1847.092	1.6	950284	ORIENT	n/a	n/a	n/a	n/a	-999	0	17	[0, 0, 0]	n/a	0	1	0	n/a	n/a	0.0	0	0	0	catFR2	0	R1074M
1850.792	1.6	952133	WORD	n/a	wordpools/wordpool_categorized_EN.txt	SPRUCE	Trees	1	0	17	[0, 0, 0]	n/a	0	1	0	n/a	n/a	0.0	0	0	0	catFR2	0	R1074M
1853.226	1.6	953350	WORD	n/a	wordpools/wordpool_categorized_EN.txt	OAK	Trees	2	0	17	[0, 0, 0]	n/a	0	1	0	n/a	n/a	0.0	0	0	0	catFR2	0	R1074M
1855.645	4.6	954560	STIM_ON	n/a	n/a	n/a	n/a	-999	0	17	[0, 0, 0]	n/a	1	1	4600	LW1	LW2	1000.0	50	230	300	catFR2	0	R1074M
1855.86	1.6	954667	WORD	n/a	wordpools/wordpool_categorized_EN.txt	DOLLHOUSE	Toys	3	0	17	[0, 0, 0]	n/a	1	1	4600	LW1	LW2	1000.0	50	230	300	catFR2	0	R1074M
1858.294	1.6	955884	WORD	n/a	wordpools/wordpool_categorized_EN.txt	FRISBEE	Toys	4	0	17	[0, 0, 0]	n/a	1	1	4600	LW1	LW2	1000.0	50	230	300	catFR2	0	R1074M
1860.694	1.6	957084	WORD	n/a	wordpools/wordpool_categorized_EN.txt	OVEN	Appliances	5	0	17	[0, 0, 0]	n/a	0	1	0	n/a	n/a	0.0	0	0	0	catFR2	0	R1074M
1863.162	1.6	958318	WORD	n/a	wordpools/wordpool_categorized_EN.txt	MIXER	Appliances	6	0	17	[0, 0, 0]	n/a	0	1	0	n/a	n/a	0.0	0	0	0	catFR2	0	R1074M
1865.406	4.6	959440	STIM_ON	n/a	n/a	n/a	n/a	-999	0	17	[0, 0, 0]	n/a	1	1	4600	LW1	LW2	1000.0	50	230	300	catFR2	0	R1074M
1865.612	1.6	959543	WORD	n/a	wordpools/wordpool_categorized_EN.txt	FOOTBALL	Toys	7	0	17	[0, 0, 0]	n/a	1	1	4600	LW1	LW2	1000.0	50	230	300	catFR2	0	R1074M
1868.113	1.6	960793	WORD	n/a	wordpools/wordpool_categorized_EN.txt	SLINKY	Toys	8	0	17	[0, 0, 0]	n/a	1	1	4600	LW1	LW2	1000.0	50	230	300	catFR2	0	R1074M
1870.496	1.6	961985	WORD	n/a	wordpools/wordpool_categorized_EN.txt	ELM	Trees	9	0	17	[0, 0, 0]	n/a	0	1	0	n/a	n/a	0.0	0	0	0	catFR2	0	R1074M
1872.898	1.6	963186	WORD	n/a	wordpools/wordpool_categorized_EN.txt	BIRCH	Trees	10	1	17	[0, 0, 0]	n/a	0	1	0	n/a	n/a	0.0	0	0	0	catFR2	0	R1074M
1875.139	4.6	964306	STIM_ON	n/a	n/a	n/a	n/a	-999	0	17	[0, 0, 0]	n/a	1	1	4600	LW1	LW2	1000.0	50	230	300	catFR2	0	R1074M
1875.347	1.6	964410	WORD	n/a	wordpools/wordpool_categorized_EN.txt	WASHER	Appliances	11	1	17	[0, 0, 0]	n/a	1	1	4600	LW1	LW2	1000.0	50	230	300	catFR2	0	R1074M
1877.814	1.6	965644	WORD	n/a	wordpools/wordpool_categorized_EN.txt	STOVE	Appliances	12	1	17	[0, 0, 0]	n/a	1	1	4600	LW1	LW2	1000.0	50	230	300	catFR2	0	R1074M
1879.431	0.001	966452	DISTRACT_START	n/a	n/a	n/a	n/a	-999	0	17	[0, 0, 0]	n/a	0	1	0	n/a	n/a	0.0	0	0	0	catFR2	0	R1074M
1879.432	0.016	966453	START	n/a	n/a	n/a	n/a	-999	0	17	[-999, -999, -999]	n/a	0	1	0	n/a	n/a	0.0	0	0	0	catFR2	0	R1074M
1879.448	7.101	966461	PROB	7.069	n/a	n/a	n/a	-999	0	17	[8, 4, 2]	14	0	1	0	n/a	n/a	0.0	0	0	0	catFR2	0	R1074M
1886.549	4.336	970011	PROB	4.304	n/a	n/a	n/a	-999	0	17	[6, 2, 4]	12	0	1	0	n/a	n/a	0.0	0	0	0	catFR2	0	R1074M
1890.885	7.667	972179	PROB	7.632	n/a	n/a	n/a	-999	0	17	[5, 6, 9]	20	0	1	0	n/a	n/a	0.0	0	0	0	catFR2	0	R1074M
1898.552	5.493	976012	PROB	5.493	n/a	n/a	n/a	-999	0	17	[4, 5, 4]	13	0	1	0	n/a	n/a	0.0	0	0	0	catFR2	0	R1074M
1904.045	0.008	978758	STOP	n/a	n/a	n/a	n/a	-999	0	17	[-999, -999, -999]	n/a	0	1	0	n/a	n/a	0.0	0	0	0	catFR2	0	R1074M
1904.053	1.034	978762	DISTRACT_END	n/a	n/a	n/a	n/a	-999	0	17	[0, 0, 0]	n/a	0	1	0	n/a	n/a	0.0	0	0	0	catFR2	0	R1074M
1905.087	2.277	979279	REC_START	n/a	n/a	n/a	n/a	-999	0	17	[0, 0, 0]	n/a	0	1	0	n/a	n/a	0.0	0	0	0	catFR2	0	R1074M
1907.364	0.731	980418	REC_WORD	2.277	n/a	BIRCH	Trees	10	1	17	[0, 0, 0]	n/a	0	1	0	n/a	n/a	0.0	0	0	0	catFR2	0	R1074M
1908.095	0.851	980783	REC_WORD	3.008	n/a	STOVE	Appliances	12	1	17	[0, 0, 0]	n/a	0	1	0	n/a	n/a	0.0	0	0	0	catFR2	0	R1074M
1908.946	2.319	981209	REC_WORD	3.859	n/a	WASHER	Appliances	11	1	17	[0, 0, 0]	n/a	0	1	0	n/a	n/a	0.0	0	0	0	catFR2	0	R1074M
1911.265	11.007	982368	REC_WORD	6.178	n/a	DISHWASHER	n/a	-999	0	17	[0, 0, 0]	n/a	0	1	0	n/a	n/a	0.0	0	0	0	catFR2	0	R1074M
1922.272	12.825	987871	REC_WORD	17.185	n/a	REFRIGERATOR	n/a	-999	0	17	[0, 0, 0]	n/a	0	1	0	n/a	n/a	0.0	0	0	0	catFR2	0	R1074M
1935.097	6.463	994283	REC_END	n/a	n/a	n/a	n/a	-999	0	17	[0, 0, 0]	n/a	0	1	0	n/a	n/a	0.0	0	0	0	catFR2	0	R1074M
1941.56	0.0	997515	TRIAL	n/a	n/a	n/a	n/a	-999	0	18	[0, 0, 0]	n/a	0	1	0	n/a	n/a	0.0	0	0	0	catFR2	0	R1074M
1941.56	10.0	997515	COUNTDOWN_START	n/a	n/a	n/a	n/a	-999	0	18	[0, 0, 0]	n/a	0	1	0	n/a	n/a	0.0	0	0	0	catFR2	0	R1074M
1951.988	0.007	1002729	COUNTDOWN_END	n/a	n/a	n/a	n/a	-999	0	18	[0, 0, 0]	n/a	0	1	0	n/a	n/a	0.0	0	0	0	catFR2	0	R1074M
1951.995	1.6	1002732	ORIENT	n/a	n/a	n/a	n/a	-999	0	18	[0, 0, 0]	n/a	0	1	0	n/a	n/a	0.0	0	0	0	catFR2	0	R1074M
1955.515	4.6	1004492	STIM_ON	n/a	n/a	n/a	n/a	-999	0	18	[0, 0, 0]	n/a	1	1	4600	LW1	LW2	1000.0	50	230	300	catFR2	0	R1074M
1955.73	1.6	1004599	WORD	n/a	wordpools/wordpool_categorized_EN.txt	GRAPE	Fruit	1	0	18	[0, 0, 0]	n/a	1	1	4600	LW1	LW2	1000.0	50	230	300	catFR2	0	R1074M
1958.313	1.6	1005891	WORD	n/a	wordpools/wordpool_categorized_EN.txt	CHERRY	Fruit	2	0	18	[0, 0, 0]	n/a	1	1	4600	LW1	LW2	1000.0	50	230	300	catFR2	0	R1074M
1960.714	1.6	1007091	WORD	n/a	wordpools/wordpool_categorized_EN.txt	PIGEON	Birds	3	0	18	[0, 0, 0]	n/a	0	1	0	n/a	n/a	0.0	0	0	0	catFR2	0	R1074M
1963.181	1.6	1008325	WORD	n/a	wordpools/wordpool_categorized_EN.txt	HAWK	Birds	4	0	18	[0, 0, 0]	n/a	0	1	0	n/a	n/a	0.0	0	0	0	catFR2	0	R1074M
1965.544	4.6	1009506	STIM_ON	n/a	n/a	n/a	n/a	-999	0	18	[0, 0, 0]	n/a	1	1	4600	LW1	LW2	1000.0	50	230	300	catFR2	0	R1074M
1965.748	1.6	1009608	WORD	n/a	wordpools/wordpool_categorized_EN.txt	TROMBONE	Instruments	5	1	18	[0, 0, 0]	n/a	1	1	4600	LW1	LW2	1000.0	50	230	300	catFR2	0	R1074M
1968.365	1.6	1010917	WORD	n/a	wordpools/wordpool_categorized_EN.txt	BANJO	Instruments	6	0	18	[0, 0, 0]	n/a	1	1	4600	LW1	LW2	1000.0	50	230	300	catFR2	0	R1074M
1970.982	1.6	1012225	WORD	n/a	wordpools/wordpool_categorized_EN.txt	SPARROW	Birds	7	0	18	[0, 0, 0]	n/a	0	1	0	n/a	n/a	0.0	0	0	0	catFR2	0	R1074M
1973.5	1.6	1013484	WORD	n/a	wordpools/wordpool_categorized_EN.txt	CROW	Birds	8	0	18	[0, 0, 0]	n/a	0	1	0	n/a	n/a	0.0	0	0	0	catFR2	0	R1074M
1975.753	4.6	1014610	STIM_ON	n/a	n/a	n/a	n/a	-999	0	18	[0, 0, 0]	n/a	1	1	4600	LW1	LW2	1000.0	50	230	300	catFR2	0	R1074M
1975.967	1.6	1014717	WORD	n/a	wordpools/wordpool_categorized_EN.txt	APPLE	Fruit	9	0	18	[0, 0, 0]	n/a	1	1	4600	LW1	LW2	1000.0	50	230	300	catFR2	0	R1074M
1978.451	1.6	1015959	WORD	n/a	wordpools/wordpool_categorized_EN.txt	STRAWBERRY	Fruit	10	0	18	[0, 0, 0]	n/a	1	1	4600	LW1	LW2	1000.0	50	230	300	catFR2	0	R1074M
1981.018	1.6	1017243	WORD	n/a	wordpools/wordpool_categorized_EN.txt	VIOLIN	Instruments	11	1	18	[0, 0, 0]	n/a	0	1	0	n/a	n/a	0.0	0	0	0	catFR2	0	R1074M
1983.618	1.6	1018543	WORD	n/a	wordpools/wordpool_categorized_EN.txt	TRUMPET	Instruments	12	0	18	[0, 0, 0]	n/a	0	1	0	n/a	n/a	0.0	0	0	0	catFR2	0	R1074M
1985.235	0.001	1019351	DISTRACT_START	n/a	n/a	n/a	n/a	-999	0	18	[0, 0, 0]	n/a	0	1	0	n/a	n/a	0.0	0	0	0	catFR2	0	R1074M
1985.236	0.016	1019352	START	n/a	n/a	n/a	n/a	-999	0	18	[-999, -999, -999]	n/a	0	1	0	n/a	n/a	0.0	0	0	0	catFR2	0	R1074M
1985.252	4.901	1019360	PROB	4.873	n/a	n/a	n/a	-999	0	18	[1, 2, 7]	10	0	1	0	n/a	n/a	0.0	0	0	0	catFR2	0	R1074M
1990.153	5.251	1021810	PROB	5.228	n/a	n/a	n/a	-999	0	18	[5, 1, 3]	9	0	1	0	n/a	n/a	0.0	0	0	0	catFR2	0	R1074M
1995.404	12.929	1024435	PROB	12.929	n/a	n/a	n/a	-999	0	18	[9, 7, 7]	24	0	1	0	n/a	n/a	0.0	0	0	0	catFR2	0	R1074M
2008.333	0.007	1030899	STOP	n/a	n/a	n/a	n/a	-999	0	18	[-999, -999, -999]	n/a	0	1	0	n/a	n/a	0.0	0	0	0	catFR2	0	R1074M
2008.34	1.234	1030903	DISTRACT_END	n/a	n/a	n/a	n/a	-999	0	18	[0, 0, 0]	n/a	0	1	0	n/a	n/a	0.0	0	0	0	catFR2	0	R1074M
2009.574	2.298	1031520	REC_START	n/a	n/a	n/a	n/a	-999	0	18	[0, 0, 0]	n/a	0	1	0	n/a	n/a	0.0	0	0	0	catFR2	0	R1074M
2011.872	0.655	1032669	REC_WORD	2.298	n/a	VIOLIN	Instruments	11	1	18	[0, 0, 0]	n/a	0	1	0	n/a	n/a	0.0	0	0	0	catFR2	0	R1074M
2012.527	27.056	1032996	REC_WORD	2.953	n/a	TROMBONE	Instruments	5	1	18	[0, 0, 0]	n/a	0	1	0	n/a	n/a	0.0	0	0	0	catFR2	0	R1074M
2039.583	10.316	1046524	REC_END	n/a	n/a	n/a	n/a	-999	0	18	[0, 0, 0]	n/a	0	1	0	n/a	n/a	0.0	0	0	0	catFR2	0	R1074M
2049.899	0.0	1051681	TRIAL	n/a	n/a	n/a	n/a	-999	0	19	[0, 0, 0]	n/a	0	1	0	n/a	n/a	0.0	0	0	0	catFR2	0	R1074M
2049.899	10.0	1051681	COUNTDOWN_START	n/a	n/a	n/a	n/a	-999	0	19	[0, 0, 0]	n/a	0	1	0	n/a	n/a	0.0	0	0	0	catFR2	0	R1074M
