onset	duration	sample	trial_type	response_time	stim_file	item_name	category	serialpos	recalled	list	test	answer	stimulation	stim_list	stim_duration	anode_label	cathode_label	amplitude	pulse_freq	n_pulses	pulse_width	experiment	session	subject
0.0	14.918	2770	SESS_START	n/a	n/a	n/a	n/a	-999	0	-999	[0, 0, 0]	n/a	0	0	0	n/a	n/a	0.0	0	0	0	catFR2	0	R1029W
14.918	10.0	17687	COUNTDOWN_START	n/a	n/a	n/a	n/a	-999	0	-999	[0, 0, 0]	n/a	0	0	0	n/a	n/a	0.0	0	0	0	catFR2	0	R1029W
25.346	3.409	28114	COUNTDOWN_END	n/a	n/a	n/a	n/a	-999	0	-999	[0, 0, 0]	n/a	0	0	0	n/a	n/a	0.0	0	0	0	catFR2	0	R1029W
28.755	1.6	31523	PRACTICE_WORD	n/a	n/a	RHINO	n/a	-999	0	1	[0, 0, 0]	n/a	0	0	0	n/a	n/a	0.0	0	0	0	catFR2	0	R1029W
31.354	1.6	34122	PRACTICE_WORD	n/a	n/a	CAMEL	n/a	-999	0	2	[0, 0, 0]	n/a	0	0	0	n/a	n/a	0.0	0	0	0	catFR2	0	R1029W
33.955	1.6	36722	PRACTICE_WORD	n/a	n/a	TONGUE	n/a	-999	0	3	[0, 0, 0]	n/a	0	0	0	n/a	n/a	0.0	0	0	0	catFR2	0	R1029W
36.405	1.6	39172	PRACTICE_WORD	n/a	n/a	ATTIC	n/a	-999	0	4	[0, 0, 0]	n/a	0	0	0	n/a	n/a	0.0	0	0	0	catFR2	0	R1029W
38.857	1.6	41624	PRACTICE_WORD	n/a	n/a	WAGON	n/a	-999	0	5	[0, 0, 0]	n/a	0	0	0	n/a	n/a	0.0	0	0	0	catFR2	0	R1029W
41.273	1.6	44040	PRACTICE_WORD	n/a	n/a	WATCH	n/a	-999	0	6	[0, 0, 0]	n/a	0	0	0	n/a	n/a	0.0	0	0	0	catFR2	0	R1029W
43.758	1.6	46525	PRACTICE_WORD	n/a	n/a	IRON	n/a	-999	0	7	[0, 0, 0]	n/a	0	0	0	n/a	n/a	0.0	0	0	0	catFR2	0	R1029W
46.357	1.6	49123	PRACTICE_WORD	n/a	n/a	FLOOD	n/a	-999	0	8	[0, 0, 0]	n/a	0	0	0	n/a	n/a	0.0	0	0	0	catFR2	0	R1029W
48.858	1.6	51624	PRACTICE_WORD	n/a	n/a	RING	n/a	-999	0	9	[0, 0, 0]	n/a	0	0	0	n/a	n/a	0.0	0	0	0	catFR2	0	R1029W
51.358	1.6	54124	PRACTICE_WORD	n/a	n/a	BEAM	n/a	-999	0	10	[0, 0, 0]	n/a	0	0	0	n/a	n/a	0.0	0	0	0	catFR2	0	R1029W
53.76	1.6	56526	PRACTICE_WORD	n/a	n/a	CHEST	n/a	-999	0	11	[0, 0, 0]	n/a	0	0	0	n/a	n/a	0.0	0	0	0	catFR2	0	R1029W
56.309	1.6	59075	PRACTICE_WORD	n/a	n/a	COTTON	n/a	-999	0	12	[0, 0, 0]	n/a	0	0	0	n/a	n/a	0.0	0	0	0	catFR2	0	R1029W
57.926	0.0	60691	PRACTICE_DISTRACT_START	n/a	n/a	n/a	n/a	-999	0	-999	[0, 0, 0]	n/a	0	0	0	n/a	n/a	0.0	0	0	0	catFR2	0	R1029W
57.926	0.017	60691	START	n/a	n/a	n/a	n/a	-999	0	-1	[-999, -999, -999]	n/a	0	-999	0	n/a	n/a	0.0	0	0	0	catFR2	0	R1029W
57.943	20.4	60708	PROB	20.4	n/a	n/a	n/a	-999	0	-1	[7, 4, 2]	13	0	-999	0	n/a	n/a	0.0	0	0	0	catFR2	0	R1029W
78.343	0.02	81107	STOP	n/a	n/a	n/a	n/a	-999	0	-1	[-999, -999, -999]	n/a	0	-999	0	n/a	n/a	0.0	0	0	0	catFR2	0	R1029W
78.363	0.603	81127	PRACTICE_DISTRACT_END	n/a	n/a	n/a	n/a	-999	0	-999	[0, 0, 0]	n/a	0	0	0	n/a	n/a	0.0	0	0	0	catFR2	0	R1029W
78.966	30.514	81730	PRACTICE_REC_START	n/a	n/a	n/a	n/a	-999	0	-999	[0, 0, 0]	n/a	0	0	0	n/a	n/a	0.0	0	0	0	catFR2	0	R1029W
109.48	261.406	112241	PRACTICE_REC_END	n/a	n/a	n/a	n/a	-999	0	-999	[0, 0, 0]	n/a	0	0	0	n/a	n/a	0.0	0	0	0	catFR2	0	R1029W
370.886	0.0	373626	TRIAL	n/a	n/a	n/a	n/a	-999	0	1	[0, 0, 0]	n/a	0	1	0	n/a	n/a	0.0	0	0	0	catFR2	0	R1029W
370.886	10.0	373626	COUNTDOWN_START	n/a	n/a	n/a	n/a	-999	0	1	[0, 0, 0]	n/a	0	1	0	n/a	n/a	0.0	0	0	0	catFR2	0	R1029W
381.314	0.006	384053	COUNTDOWN_END	n/a	n/a	n/a	n/a	-999	0	1	[0, 0, 0]	n/a	0	1	0	n/a	n/a	0.0	0	0	0	catFR2	0	R1029W
381.32	1.6	384059	ORIENT	n/a	n/a	n/a	n/a	-999	0	1	[0, 0, 0]	n/a	0	1	0	n/a	n/a	0.0	0	0	0	catFR2	0	R1029W
384.816	4.6	387555	STIM_ON	n/a	n/a	n/a	n/a	-999	0	1	[0, 0, 0]	n/a	1	1	4600	GRID52	GRID60	3500.0	50	230	300	catFR2	0	R1029W
385.021	1.6	387760	WORD	n/a	wordpools/wordpool_categorized_EN.txt	BROCCOLI	Vegetables	1	0	1	[0, 0, 0]	n/a	1	1	4600	GRID52	GRID60	3500.0	50	230	300	catFR2	0	R1029W
387.555	1.6	390294	WORD	n/a	wordpools/wordpool_categorized_EN.txt	POTATO	Vegetables	2	0	1	[0, 0, 0]	n/a	1	1	4600	GRID52	GRID60	3500.0	50	230	300	catFR2	0	R1029W
390.022	1.6	392760	WORD	n/a	wordpools/wordpool_categorized_EN.txt	CIDER	Beverages	3	0	1	[0, 0, 0]	n/a	0	1	0	n/a	n/a	0.0	0	0	0	catFR2	0	R1029W
392.523	1.6	395261	WORD	n/a	wordpools/wordpool_categorized_EN.txt	JUICE	Beverages	4	0	1	[0, 0, 0]	n/a	0	1	0	n/a	n/a	0.0	0	0	0	catFR2	0	R1029W
394.735	4.6	397473	STIM_ON	n/a	n/a	n/a	n/a	-999	0	1	[0, 0, 0]	n/a	1	1	4600	GRID52	GRID60	3500.0	50	230	300	catFR2	0	R1029W
394.94	1.6	397678	WORD	n/a	wordpools/wordpool_categorized_EN.txt	MICROWAVE	Electronics	5	0	1	[0, 0, 0]	n/a	1	1	4600	GRID52	GRID60	3500.0	50	230	300	catFR2	0	R1029W
397.357	1.6	400095	WORD	n/a	wordpools/wordpool_categorized_EN.txt	RADIO	Electronics	6	0	1	[0, 0, 0]	n/a	1	1	4600	GRID52	GRID60	3500.0	50	230	300	catFR2	0	R1029W
399.941	1.6	402679	WORD	n/a	wordpools/wordpool_categorized_EN.txt	SPINACH	Vegetables	7	1	1	[0, 0, 0]	n/a	0	1	0	n/a	n/a	0.0	0	0	0	catFR2	0	R1029W
402.441	1.6	405178	WORD	n/a	wordpools/wordpool_categorized_EN.txt	CAULIFLOWER	Vegetables	8	0	1	[0, 0, 0]	n/a	0	1	0	n/a	n/a	0.0	0	0	0	catFR2	0	R1029W
404.781	4.6	407518	STIM_ON	n/a	n/a	n/a	n/a	-999	0	1	[0, 0, 0]	n/a	1	1	4600	GRID52	GRID60	3500.0	50	230	300	catFR2	0	R1029W
404.991	1.6	407728	WORD	n/a	wordpools/wordpool_categorized_EN.txt	PRINTER	Electronics	9	0	1	[0, 0, 0]	n/a	1	1	4600	GRID52	GRID60	3500.0	50	230	300	catFR2	0	R1029W
407.459	1.6	410196	WORD	n/a	wordpools/wordpool_categorized_EN.txt	TELEVISION	Electronics	10	0	1	[0, 0, 0]	n/a	1	1	4600	GRID52	GRID60	3500.0	50	230	300	catFR2	0	R1029W
410.076	1.6	412813	WORD	n/a	wordpools/wordpool_categorized_EN.txt	LEMONADE	Beverages	11	0	1	[0, 0, 0]	n/a	0	1	0	n/a	n/a	0.0	0	0	0	catFR2	0	R1029W
412.576	1.6	415313	WORD	n/a	wordpools/wordpool_categorized_EN.txt	WATER	Beverages	12	0	1	[0, 0, 0]	n/a	0	1	0	n/a	n/a	0.0	0	0	0	catFR2	0	R1029W
414.193	0.001	416930	DISTRACT_START	n/a	n/a	n/a	n/a	-999	0	1	[0, 0, 0]	n/a	0	1	0	n/a	n/a	0.0	0	0	0	catFR2	0	R1029W
414.194	0.016	416931	START	n/a	n/a	n/a	n/a	-999	0	1	[-999, -999, -999]	n/a	0	1	0	n/a	n/a	0.0	0	0	0	catFR2	0	R1029W
414.21	9.035	416947	PROB	9.005	n/a	n/a	n/a	-999	0	1	[5, 7, 2]	14	0	1	0	n/a	n/a	0.0	0	0	0	catFR2	0	R1029W
423.245	5.318	425981	PROB	5.282	n/a	n/a	n/a	-999	0	1	[1, 8, 4]	13	0	1	0	n/a	n/a	0.0	0	0	0	catFR2	0	R1029W
428.563	10.492	431298	PROB	10.492	n/a	n/a	n/a	-999	0	1	[9, 1, 9]	19	0	1	0	n/a	n/a	0.0	0	0	0	catFR2	0	R1029W
439.055	0.01	441789	STOP	n/a	n/a	n/a	n/a	-999	0	1	[-999, -999, -999]	n/a	0	1	0	n/a	n/a	0.0	0	0	0	catFR2	0	R1029W
439.065	1.211	441799	DISTRACT_END	n/a	n/a	n/a	n/a	-999	0	1	[0, 0, 0]	n/a	0	1	0	n/a	n/a	0.0	0	0	0	catFR2	0	R1029W
440.276	1.457	443010	REC_START	n/a	n/a	n/a	n/a	-999	0	1	[0, 0, 0]	n/a	0	1	0	n/a	n/a	0.0	0	0	0	catFR2	0	R1029W
441.733	0.999	444467	REC_WORD_VV	1.457	n/a	<>	n/a	-999	0	1	[0, 0, 0]	n/a	0	1	0	n/a	n/a	0.0	0	0	0	catFR2	0	R1029W
442.732	1.0	445466	REC_WORD_VV	2.456	n/a	<>	n/a	-999	0	1	[0, 0, 0]	n/a	0	1	0	n/a	n/a	0.0	0	0	0	catFR2	0	R1029W
443.732	5.468	446466	REC_WORD_VV	3.456	n/a	<>	n/a	-999	0	1	[0, 0, 0]	n/a	0	1	0	n/a	n/a	0.0	0	0	0	catFR2	0	R1029W
449.2	3.01	451934	REC_WORD	8.924	n/a	SPINACH	Vegetables	7	1	1	[0, 0, 0]	n/a	0	1	0	n/a	n/a	0.0	0	0	0	catFR2	0	R1029W
452.21	2.424	454943	REC_WORD_VV	11.934	n/a	<>	n/a	-999	0	1	[0, 0, 0]	n/a	0	1	0	n/a	n/a	0.0	0	0	0	catFR2	0	R1029W
454.634	2.351	457367	REC_WORD	14.358	n/a	TONGUE	n/a	-999	0	1	[0, 0, 0]	n/a	0	1	0	n/a	n/a	0.0	0	0	0	catFR2	0	R1029W
456.985	3.625	459718	REC_WORD_VV	16.709	n/a	<>	n/a	-999	0	1	[0, 0, 0]	n/a	0	1	0	n/a	n/a	0.0	0	0	0	catFR2	0	R1029W
460.61	8.437	463343	REC_WORD_VV	20.334	n/a	<>	n/a	-999	0	1	[0, 0, 0]	n/a	0	1	0	n/a	n/a	0.0	0	0	0	catFR2	0	R1029W
469.047	1.23	471779	REC_WORD_VV	28.771	n/a	<>	n/a	-999	0	1	[0, 0, 0]	n/a	0	1	0	n/a	n/a	0.0	0	0	0	catFR2	0	R1029W
470.277	1.894	473009	REC_END	n/a	n/a	n/a	n/a	-999	0	1	[0, 0, 0]	n/a	0	1	0	n/a	n/a	0.0	0	0	0	catFR2	0	R1029W
472.171	0.0	474903	TRIAL	n/a	n/a	n/a	n/a	-999	0	2	[0, 0, 0]	n/a	0	0	0	n/a	n/a	0.0	0	0	0	catFR2	0	R1029W
472.171	10.0	474903	COUNTDOWN_START	n/a	n/a	n/a	n/a	-999	0	2	[0, 0, 0]	n/a	0	0	0	n/a	n/a	0.0	0	0	0	catFR2	0	R1029W
482.599	0.007	485330	COUNTDOWN_END	n/a	n/a	n/a	n/a	-999	0	2	[0, 0, 0]	n/a	0	0	0	n/a	n/a	0.0	0	0	0	catFR2	0	R1029W
482.606	1.6	485337	ORIENT	n/a	n/a	n/a	n/a	-999	0	2	[0, 0, 0]	n/a	0	0	0	n/a	n/a	0.0	0	0	0	catFR2	0	R1029W
486.424	1.6	489155	WORD	n/a	wordpools/wordpool_categorized_EN.txt	WHISK	KitchenTools	1	0	2	[0, 0, 0]	n/a	0	0	0	n/a	n/a	0.0	0	0	0	catFR2	0	R1029W
488.875	1.6	491605	WORD	n/a	wordpools/wordpool_categorized_EN.txt	CORKSCREW	KitchenTools	2	0	2	[0, 0, 0]	n/a	0	0	0	n/a	n/a	0.0	0	0	0	catFR2	0	R1029W
491.441	1.6	494171	WORD	n/a	wordpools/wordpool_categorized_EN.txt	HEN	FarmAnimals	3	0	2	[0, 0, 0]	n/a	0	0	0	n/a	n/a	0.0	0	0	0	catFR2	0	R1029W
493.958	1.6	496688	WORD	n/a	wordpools/wordpool_categorized_EN.txt	GOAT	FarmAnimals	4	0	2	[0, 0, 0]	n/a	0	0	0	n/a	n/a	0.0	0	0	0	catFR2	0	R1029W
496.459	1.6	499189	WORD	n/a	wordpools/wordpool_categorized_EN.txt	ORANGUTAN	Zoo	5	1	2	[0, 0, 0]	n/a	0	0	0	n/a	n/a	0.0	0	0	0	catFR2	0	R1029W
498.993	1.6	501723	WORD	n/a	wordpools/wordpool_categorized_EN.txt	LION	Zoo	6	0	2	[0, 0, 0]	n/a	0	0	0	n/a	n/a	0.0	0	0	0	catFR2	0	R1029W
501.543	1.6	504272	WORD	n/a	wordpools/wordpool_categorized_EN.txt	TURKEY	FarmAnimals	7	1	2	[0, 0, 0]	n/a	0	0	0	n/a	n/a	0.0	0	0	0	catFR2	0	R1029W
504.01	1.6	506739	WORD	n/a	wordpools/wordpool_categorized_EN.txt	HORSE	FarmAnimals	8	0	2	[0, 0, 0]	n/a	0	0	0	n/a	n/a	0.0	0	0	0	catFR2	0	R1029W
506.461	1.6	509190	WORD	n/a	wordpools/wordpool_categorized_EN.txt	SPOON	KitchenTools	9	0	2	[0, 0, 0]	n/a	0	0	0	n/a	n/a	0.0	0	0	0	catFR2	0	R1029W
508.928	1.6	511657	WORD	n/a	wordpools/wordpool_categorized_EN.txt	GRATER	KitchenTools	10	0	2	[0, 0, 0]	n/a	0	0	0	n/a	n/a	0.0	0	0	0	catFR2	0	R1029W
511.328	1.6	514057	WORD	n/a	wordpools/wordpool_categorized_EN.txt	BEAR	Zoo	11	0	2	[0, 0, 0]	n/a	0	0	0	n/a	n/a	0.0	0	0	0	catFR2	0	R1029W
513.73	1.6	516458	WORD	n/a	wordpools/wordpool_categorized_EN.txt	MONKEY	Zoo	12	0	2	[0, 0, 0]	n/a	0	0	0	n/a	n/a	0.0	0	0	0	catFR2	0	R1029W
515.346	0.001	518074	DISTRACT_START	n/a	n/a	n/a	n/a	-999	0	2	[0, 0, 0]	n/a	0	0	0	n/a	n/a	0.0	0	0	0	catFR2	0	R1029W
515.347	0.015	518075	START	n/a	n/a	n/a	n/a	-999	0	2	[-999, -999, -999]	n/a	0	0	0	n/a	n/a	0.0	0	0	0	catFR2	0	R1029W
515.362	4.735	518090	PROB	4.709	n/a	n/a	n/a	-999	0	2	[2, 6, 5]	13	0	0	0	n/a	n/a	0.0	0	0	0	catFR2	0	R1029W
520.097	5.201	522825	PROB	5.174	n/a	n/a	n/a	-999	0	2	[8, 9, 2]	19	0	0	0	n/a	n/a	0.0	0	0	0	catFR2	0	R1029W
525.298	32.013	528025	PROB	32.013	n/a	n/a	n/a	-999	0	2	[9, 8, 7]	24	0	0	0	n/a	n/a	0.0	0	0	0	catFR2	0	R1029W
557.311	0.009	560036	STOP	n/a	n/a	n/a	n/a	-999	0	2	[-999, -999, -999]	n/a	0	0	0	n/a	n/a	0.0	0	0	0	catFR2	0	R1029W
557.32	1.134	560045	DISTRACT_END	n/a	n/a	n/a	n/a	-999	0	2	[0, 0, 0]	n/a	0	0	0	n/a	n/a	0.0	0	0	0	catFR2	0	R1029W
558.454	1.98	561179	REC_START	n/a	n/a	n/a	n/a	-999	0	2	[0, 0, 0]	n/a	0	0	0	n/a	n/a	0.0	0	0	0	catFR2	0	R1029W
560.434	4.629	563159	REC_WORD_VV	1.98	n/a	<>	n/a	-999	0	2	[0, 0, 0]	n/a	0	0	0	n/a	n/a	0.0	0	0	0	catFR2	0	R1029W
565.063	2.953	567787	REC_WORD	6.609	n/a	BROCCOLI	n/a	-999	0	2	[0, 0, 0]	n/a	0	0	0	n/a	n/a	0.0	0	0	0	catFR2	0	R1029W
568.016	4.691	570740	REC_WORD_VV	9.562	n/a	<>	n/a	-999	0	2	[0, 0, 0]	n/a	0	0	0	n/a	n/a	0.0	0	0	0	catFR2	0	R1029W
572.707	4.648	575431	REC_WORD	14.253	n/a	CHICKEN	n/a	-999	0	2	[0, 0, 0]	n/a	0	0	0	n/a	n/a	0.0	0	0	0	catFR2	0	R1029W
577.355	2.2	580078	REC_WORD	18.901	n/a	ROOSTER	n/a	-999	0	2	[0, 0, 0]	n/a	0	0	0	n/a	n/a	0.0	0	0	0	catFR2	0	R1029W
579.555	2.557	582278	REC_WORD	21.101	n/a	ORANGUTAN	Zoo	5	1	2	[0, 0, 0]	n/a	0	0	0	n/a	n/a	0.0	0	0	0	catFR2	0	R1029W
582.112	6.354	584835	REC_WORD	23.658	n/a	TURKEY	FarmAnimals	7	1	2	[0, 0, 0]	n/a	0	0	0	n/a	n/a	0.0	0	0	0	catFR2	0	R1029W
588.466	2.56	591188	REC_END	n/a	n/a	n/a	n/a	-999	0	2	[0, 0, 0]	n/a	0	0	0	n/a	n/a	0.0	0	0	0	catFR2	0	R1029W
591.026	10.0	593748	COUNTDOWN_START	n/a	n/a	n/a	n/a	-999	0	3	[0, 0, 0]	n/a	0	1	0	n/a	n/a	0.0	0	0	0	catFR2	0	R1029W
591.026	10.428	593748	TRIAL	n/a	n/a	n/a	n/a	-999	0	3	[0, 0, 0]	n/a	0	1	0	n/a	n/a	0.0	0	0	0	catFR2	0	R1029W
601.454	0.008	604175	COUNTDOWN_END	n/a	n/a	n/a	n/a	-999	0	3	[0, 0, 0]	n/a	0	1	0	n/a	n/a	0.0	0	0	0	catFR2	0	R1029W
601.462	1.6	604183	ORIENT	n/a	n/a	n/a	n/a	-999	0	3	[0, 0, 0]	n/a	0	1	0	n/a	n/a	0.0	0	0	0	catFR2	0	R1029W
604.919	4.6	607640	STIM_ON	n/a	n/a	n/a	n/a	-999	0	3	[0, 0, 0]	n/a	1	1	4600	GRID52	GRID60	3500.0	50	230	300	catFR2	0	R1029W
605.129	1.6	607850	WORD	n/a	wordpools/wordpool_categorized_EN.txt	LEG	BodyParts	1	0	3	[0, 0, 0]	n/a	1	1	4600	GRID52	GRID60	3500.0	50	230	300	catFR2	0	R1029W
607.731	1.6	610452	WORD	n/a	wordpools/wordpool_categorized_EN.txt	FOOT	BodyParts	2	0	3	[0, 0, 0]	n/a	1	1	4600	GRID52	GRID60	3500.0	50	230	300	catFR2	0	R1029W
610.18	1.6	612901	WORD	n/a	wordpools/wordpool_categorized_EN.txt	STAIRS	Building	3	0	3	[0, 0, 0]	n/a	0	1	0	n/a	n/a	0.0	0	0	0	catFR2	0	R1029W
612.715	1.6	615435	WORD	n/a	wordpools/wordpool_categorized_EN.txt	CEILING	Building	4	1	3	[0, 0, 0]	n/a	0	1	0	n/a	n/a	0.0	0	0	0	catFR2	0	R1029W
614.956	4.6	617676	STIM_ON	n/a	n/a	n/a	n/a	-999	0	3	[0, 0, 0]	n/a	1	1	4600	GRID52	GRID60	3500.0	50	230	300	catFR2	0	R1029W
615.164	1.6	617884	WORD	n/a	wordpools/wordpool_categorized_EN.txt	CHICKEN	FarmAnimals	5	0	3	[0, 0, 0]	n/a	1	1	4600	GRID52	GRID60	3500.0	50	230	300	catFR2	0	R1029W
617.565	1.6	620285	WORD	n/a	wordpools/wordpool_categorized_EN.txt	SHEEP	FarmAnimals	6	0	3	[0, 0, 0]	n/a	1	1	4600	GRID52	GRID60	3500.0	50	230	300	catFR2	0	R1029W
620.165	1.6	622885	WORD	n/a	wordpools/wordpool_categorized_EN.txt	FOUNDATION	Building	7	0	3	[0, 0, 0]	n/a	0	1	0	n/a	n/a	0.0	0	0	0	catFR2	0	R1029W
622.532	1.6	625252	WORD	n/a	wordpools/wordpool_categorized_EN.txt	ROOF	Building	8	0	3	[0, 0, 0]	n/a	0	1	0	n/a	n/a	0.0	0	0	0	catFR2	0	R1029W
624.941	4.6	627660	STIM_ON	n/a	n/a	n/a	n/a	-999	0	3	[0, 0, 0]	n/a	1	1	4600	GRID52	GRID60	3500.0	50	230	300	catFR2	0	R1029W
625.15	1.6	627869	WORD	n/a	wordpools/wordpool_categorized_EN.txt	KNEE	BodyParts	9	0	3	[0, 0, 0]	n/a	1	1	4600	GRID52	GRID60	3500.0	50	230	300	catFR2	0	R1029W
627.583	1.6	630302	WORD	n/a	wordpools/wordpool_categorized_EN.txt	ELBOW	BodyParts	10	0	3	[0, 0, 0]	n/a	1	1	4600	GRID52	GRID60	3500.0	50	230	300	catFR2	0	R1029W
630.084	1.6	632803	WORD	n/a	wordpools/wordpool_categorized_EN.txt	PIG	FarmAnimals	11	0	3	[0, 0, 0]	n/a	0	1	0	n/a	n/a	0.0	0	0	0	catFR2	0	R1029W
632.584	1.6	635303	WORD	n/a	wordpools/wordpool_categorized_EN.txt	CALF	FarmAnimals	12	0	3	[0, 0, 0]	n/a	0	1	0	n/a	n/a	0.0	0	0	0	catFR2	0	R1029W
634.201	0.001	636920	DISTRACT_START	n/a	n/a	n/a	n/a	-999	0	3	[0, 0, 0]	n/a	0	1	0	n/a	n/a	0.0	0	0	0	catFR2	0	R1029W
634.202	0.016	636921	START	n/a	n/a	n/a	n/a	-999	0	3	[-999, -999, -999]	n/a	0	1	0	n/a	n/a	0.0	0	0	0	catFR2	0	R1029W
634.218	6.935	636937	PROB	6.909	n/a	n/a	n/a	-999	0	3	[8, 7, 1]	16	0	1	0	n/a	n/a	0.0	0	0	0	catFR2	0	R1029W
641.153	10.268	643871	PROB	10.238	n/a	n/a	n/a	-999	0	3	[3, 6, 2]	11	0	1	0	n/a	n/a	0.0	0	0	0	catFR2	0	R1029W
651.421	35.858	654138	PROB	35.858	n/a	n/a	n/a	-999	0	3	[8, 8, 8]	24	0	1	0	n/a	n/a	0.0	0	0	0	catFR2	0	R1029W
687.279	0.016	689993	STOP	n/a	n/a	n/a	n/a	-999	0	3	[-999, -999, -999]	n/a	0	1	0	n/a	n/a	0.0	0	0	0	catFR2	0	R1029W
687.295	1.084	690009	DISTRACT_END	n/a	n/a	n/a	n/a	-999	0	3	[0, 0, 0]	n/a	0	1	0	n/a	n/a	0.0	0	0	0	catFR2	0	R1029W
688.379	4.003	691093	REC_START	n/a	n/a	n/a	n/a	-999	0	3	[0, 0, 0]	n/a	0	1	0	n/a	n/a	0.0	0	0	0	catFR2	0	R1029W
692.382	11.461	695096	REC_WORD_VV	4.003	n/a	<>	n/a	-999	0	3	[0, 0, 0]	n/a	0	1	0	n/a	n/a	0.0	0	0	0	catFR2	0	R1029W
703.843	0.505	706556	REC_WORD	15.464	n/a	FLOOR	n/a	-999	0	3	[0, 0, 0]	n/a	0	1	0	n/a	n/a	0.0	0	0	0	catFR2	0	R1029W
704.348	14.042	707061	REC_WORD	15.969	n/a	CEILING	Building	4	1	3	[0, 0, 0]	n/a	0	1	0	n/a	n/a	0.0	0	0	0	catFR2	0	R1029W
718.39	2.761	721102	REC_END	n/a	n/a	n/a	n/a	-999	0	3	[0, 0, 0]	n/a	0	1	0	n/a	n/a	0.0	0	0	0	catFR2	0	R1029W
721.151	0.0	723863	TRIAL	n/a	n/a	n/a	n/a	-999	0	4	[0, 0, 0]	n/a	0	1	0	n/a	n/a	0.0	0	0	0	catFR2	0	R1029W
721.151	10.0	723863	COUNTDOWN_START	n/a	n/a	n/a	n/a	-999	0	4	[0, 0, 0]	n/a	0	1	0	n/a	n/a	0.0	0	0	0	catFR2	0	R1029W
731.579	0.007	734290	COUNTDOWN_END	n/a	n/a	n/a	n/a	-999	0	4	[0, 0, 0]	n/a	0	1	0	n/a	n/a	0.0	0	0	0	catFR2	0	R1029W
731.586	1.6	734297	ORIENT	n/a	n/a	n/a	n/a	-999	0	4	[0, 0, 0]	n/a	0	1	0	n/a	n/a	0.0	0	0	0	catFR2	0	R1029W
735.164	4.6	737874	STIM_ON	n/a	n/a	n/a	n/a	-999	0	4	[0, 0, 0]	n/a	1	1	4600	GRID52	GRID60	3500.0	50	230	300	catFR2	0	R1029W
735.37	1.6	738080	WORD	n/a	wordpools/wordpool_categorized_EN.txt	BUTTERFLY	Insects	1	1	4	[0, 0, 0]	n/a	1	1	4600	GRID52	GRID60	3500.0	50	230	300	catFR2	0	R1029W
737.872	1.6	740582	WORD	n/a	wordpools/wordpool_categorized_EN.txt	FLY	Insects	2	1	4	[0, 0, 0]	n/a	1	1	4600	GRID52	GRID60	3500.0	50	230	300	catFR2	0	R1029W
740.288	1.6	742998	WORD	n/a	wordpools/wordpool_categorized_EN.txt	FLUTE	Instruments	3	0	4	[0, 0, 0]	n/a	0	1	0	n/a	n/a	0.0	0	0	0	catFR2	0	R1029W
742.756	1.6	745466	WORD	n/a	wordpools/wordpool_categorized_EN.txt	ORGAN	Instruments	4	0	4	[0, 0, 0]	n/a	0	1	0	n/a	n/a	0.0	0	0	0	catFR2	0	R1029W
745.137	4.6	747847	STIM_ON	n/a	n/a	n/a	n/a	-999	0	4	[0, 0, 0]	n/a	1	1	4600	GRID52	GRID60	3500.0	50	230	300	catFR2	0	R1029W
745.339	1.6	748049	WORD	n/a	wordpools/wordpool_categorized_EN.txt	COBBLER	Desserts	5	0	4	[0, 0, 0]	n/a	1	1	4600	GRID52	GRID60	3500.0	50	230	300	catFR2	0	R1029W
747.906	1.6	750615	WORD	n/a	wordpools/wordpool_categorized_EN.txt	COOKIE	Desserts	6	0	4	[0, 0, 0]	n/a	1	1	4600	GRID52	GRID60	3500.0	50	230	300	catFR2	0	R1029W
750.29	1.6	752999	WORD	n/a	wordpools/wordpool_categorized_EN.txt	BEE	Insects	7	1	4	[0, 0, 0]	n/a	0	1	0	n/a	n/a	0.0	0	0	0	catFR2	0	R1029W
752.758	1.6	755467	WORD	n/a	wordpools/wordpool_categorized_EN.txt	MOTH	Insects	8	1	4	[0, 0, 0]	n/a	0	1	0	n/a	n/a	0.0	0	0	0	catFR2	0	R1029W
755.095	4.6	757804	STIM_ON	n/a	n/a	n/a	n/a	-999	0	4	[0, 0, 0]	n/a	1	1	4600	GRID52	GRID60	3500.0	50	230	300	catFR2	0	R1029W
755.307	1.6	758016	WORD	n/a	wordpools/wordpool_categorized_EN.txt	BROWNIES	Desserts	9	0	4	[0, 0, 0]	n/a	1	1	4600	GRID52	GRID60	3500.0	50	230	300	catFR2	0	R1029W
757.876	1.6	760585	WORD	n/a	wordpools/wordpool_categorized_EN.txt	CHEESECAKE	Desserts	10	0	4	[0, 0, 0]	n/a	1	1	4600	GRID52	GRID60	3500.0	50	230	300	catFR2	0	R1029W
760.475	1.6	763183	WORD	n/a	wordpools/wordpool_categorized_EN.txt	BASS	Instruments	11	0	4	[0, 0, 0]	n/a	0	1	0	n/a	n/a	0.0	0	0	0	catFR2	0	R1029W
762.959	1.6	765667	WORD	n/a	wordpools/wordpool_categorized_EN.txt	TRUMPET	Instruments	12	0	4	[0, 0, 0]	n/a	0	1	0	n/a	n/a	0.0	0	0	0	catFR2	0	R1029W
764.576	0.001	767284	DISTRACT_START	n/a	n/a	n/a	n/a	-999	0	4	[0, 0, 0]	n/a	0	1	0	n/a	n/a	0.0	0	0	0	catFR2	0	R1029W
764.577	0.016	767285	START	n/a	n/a	n/a	n/a	-999	0	4	[-999, -999, -999]	n/a	0	1	0	n/a	n/a	0.0	0	0	0	catFR2	0	R1029W
764.593	8.085	767301	PROB	8.055	n/a	n/a	n/a	-999	0	4	[6, 8, 2]	16	0	1	0	n/a	n/a	0.0	0	0	0	catFR2	0	R1029W
772.678	11.103	775385	PROB	11.066	n/a	n/a	n/a	-999	0	4	[6, 7, 5]	18	0	1	0	n/a	n/a	0.0	0	0	0	catFR2	0	R1029W
783.781	3.891	786488	PROB	3.891	n/a	n/a	n/a	-999	0	4	[4, 1, 4]	9	0	1	0	n/a	n/a	0.0	0	0	0	catFR2	0	R1029W
787.672	0.009	790378	STOP	n/a	n/a	n/a	n/a	-999	0	4	[-999, -999, -999]	n/a	0	1	0	n/a	n/a	0.0	0	0	0	catFR2	0	R1029W
787.681	1.151	790387	DISTRACT_END	n/a	n/a	n/a	n/a	-999	0	4	[0, 0, 0]	n/a	0	1	0	n/a	n/a	0.0	0	0	0	catFR2	0	R1029W
788.832	2.243	791538	REC_START	n/a	n/a	n/a	n/a	-999	0	4	[0, 0, 0]	n/a	0	1	0	n/a	n/a	0.0	0	0	0	catFR2	0	R1029W
791.075	0.717	793781	REC_WORD	2.243	n/a	BUTTERFLY	Insects	1	1	4	[0, 0, 0]	n/a	0	1	0	n/a	n/a	0.0	0	0	0	catFR2	0	R1029W
791.792	0.861	794498	REC_WORD	2.96	n/a	FLY	Insects	2	1	4	[0, 0, 0]	n/a	0	1	0	n/a	n/a	0.0	0	0	0	catFR2	0	R1029W
792.653	3.922	795359	REC_WORD	3.821	n/a	MOTH	Insects	8	1	4	[0, 0, 0]	n/a	0	1	0	n/a	n/a	0.0	0	0	0	catFR2	0	R1029W
796.575	3.746	799280	REC_WORD	7.743	n/a	BEE	Insects	7	1	4	[0, 0, 0]	n/a	0	1	0	n/a	n/a	0.0	0	0	0	catFR2	0	R1029W
800.321	0.997	803026	REC_WORD_VV	11.489	n/a	<>	n/a	-999	0	4	[0, 0, 0]	n/a	0	1	0	n/a	n/a	0.0	0	0	0	catFR2	0	R1029W
801.318	0.314	804023	REC_WORD_VV	12.486	n/a	<>	n/a	-999	0	4	[0, 0, 0]	n/a	0	1	0	n/a	n/a	0.0	0	0	0	catFR2	0	R1029W
801.632	17.211	804337	REC_WORD	12.8	n/a	MICROWAVE	n/a	-999	0	4	[0, 0, 0]	n/a	0	1	0	n/a	n/a	0.0	0	0	0	catFR2	0	R1029W
818.843	1363.433	821547	REC_END	n/a	n/a	n/a	n/a	-999	0	4	[0, 0, 0]	n/a	0	1	0	n/a	n/a	0.0	0	0	0	catFR2	0	R1029W
2182.276	0.0	2184869	TRIAL	n/a	n/a	n/a	n/a	-999	0	5	[0, 0, 0]	n/a	0	1	0	n/a	n/a	0.0	0	0	0	catFR2	0	R1029W
2182.276	10.0	2184869	COUNTDOWN_START	n/a	n/a	n/a	n/a	-999	0	5	[0, 0, 0]	n/a	0	1	0	n/a	n/a	0.0	0	0	0	catFR2	0	R1029W
2192.704	0.008	2195296	COUNTDOWN_END	n/a	n/a	n/a	n/a	-999	0	5	[0, 0, 0]	n/a	0	1	0	n/a	n/a	0.0	0	0	0	catFR2	0	R1029W
2192.712	1.6	2195304	ORIENT	n/a	n/a	n/a	n/a	-999	0	5	[0, 0, 0]	n/a	0	1	0	n/a	n/a	0.0	0	0	0	catFR2	0	R1029W
2196.445	1.6	2199037	WORD	n/a	wordpools/wordpool_categorized_EN.txt	THUNDERSTORM	Weather	1	1	5	[0, 0, 0]	n/a	0	1	0	n/a	n/a	0.0	0	0	0	catFR2	0	R1029W
2198.996	1.6	2201588	WORD	n/a	wordpools/wordpool_categorized_EN.txt	WIND	Weather	2	0	5	[0, 0, 0]	n/a	0	1	0	n/a	n/a	0.0	0	0	0	catFR2	0	R1029W
2201.359	4.6	2203950	STIM_ON	n/a	n/a	n/a	n/a	-999	0	5	[0, 0, 0]	n/a	1	1	4600	GRID52	GRID60	3500.0	50	230	300	catFR2	0	R1029W
2201.563	1.6	2204154	WORD	n/a	wordpools/wordpool_categorized_EN.txt	BLUEBIRD	Birds	3	0	5	[0, 0, 0]	n/a	1	1	4600	GRID52	GRID60	3500.0	50	230	300	catFR2	0	R1029W
2204.097	1.6	2206688	WORD	n/a	wordpools/wordpool_categorized_EN.txt	ROBIN	Birds	4	0	5	[0, 0, 0]	n/a	1	1	4600	GRID52	GRID60	3500.0	50	230	300	catFR2	0	R1029W
2206.632	1.6	2209223	WORD	n/a	wordpools/wordpool_categorized_EN.txt	MOUNTAIN	Landscapes	5	0	5	[0, 0, 0]	n/a	0	1	0	n/a	n/a	0.0	0	0	0	catFR2	0	R1029W
2209.114	1.6	2211705	WORD	n/a	wordpools/wordpool_categorized_EN.txt	RIVER	Landscapes	6	0	5	[0, 0, 0]	n/a	0	1	0	n/a	n/a	0.0	0	0	0	catFR2	0	R1029W
2211.269	4.6	2213860	STIM_ON	n/a	n/a	n/a	n/a	-999	0	5	[0, 0, 0]	n/a	1	1	4600	GRID52	GRID60	3500.0	50	230	300	catFR2	0	R1029W
2211.481	1.6	2214072	WORD	n/a	wordpools/wordpool_categorized_EN.txt	HAWK	Birds	7	0	5	[0, 0, 0]	n/a	1	1	4600	GRID52	GRID60	3500.0	50	230	300	catFR2	0	R1029W
2213.999	1.6	2216589	WORD	n/a	wordpools/wordpool_categorized_EN.txt	FINCH	Birds	8	0	5	[0, 0, 0]	n/a	1	1	4600	GRID52	GRID60	3500.0	50	230	300	catFR2	0	R1029W
2216.599	1.6	2219189	WORD	n/a	wordpools/wordpool_categorized_EN.txt	TORNADO	Weather	9	0	5	[0, 0, 0]	n/a	0	1	0	n/a	n/a	0.0	0	0	0	catFR2	0	R1029W
2219.066	1.6	2221656	WORD	n/a	wordpools/wordpool_categorized_EN.txt	CLOUD	Weather	10	1	5	[0, 0, 0]	n/a	0	1	0	n/a	n/a	0.0	0	0	0	catFR2	0	R1029W
2221.276	4.6	2223866	STIM_ON	n/a	n/a	n/a	n/a	-999	0	5	[0, 0, 0]	n/a	1	1	4600	GRID52	GRID60	3500.0	50	230	300	catFR2	0	R1029W
2221.483	1.6	2224073	WORD	n/a	wordpools/wordpool_categorized_EN.txt	WOODS	Landscapes	11	0	5	[0, 0, 0]	n/a	1	1	4600	GRID52	GRID60	3500.0	50	230	300	catFR2	0	R1029W
2224.067	1.6	2226657	WORD	n/a	wordpools/wordpool_categorized_EN.txt	LAKE	Landscapes	12	0	5	[0, 0, 0]	n/a	1	1	4600	GRID52	GRID60	3500.0	50	230	300	catFR2	0	R1029W
2225.668	0.001	2228257	DISTRACT_START	n/a	n/a	n/a	n/a	-999	0	5	[0, 0, 0]	n/a	0	1	0	n/a	n/a	0.0	0	0	0	catFR2	0	R1029W
2225.669	0.016	2228258	START	n/a	n/a	n/a	n/a	-999	0	5	[-999, -999, -999]	n/a	0	1	0	n/a	n/a	0.0	0	0	0	catFR2	0	R1029W
2225.685	5.333	2228274	PROB	5.298	n/a	n/a	n/a	-999	0	5	[1, 6, 7]	14	0	1	0	n/a	n/a	0.0	0	0	0	catFR2	0	R1029W
2231.018	3.484	2233607	PROB	3.461	n/a	n/a	n/a	-999	0	5	[2, 3, 9]	14	0	1	0	n/a	n/a	0.0	0	0	0	catFR2	0	R1029W
2234.502	4.618	2237091	PROB	4.585	n/a	n/a	n/a	-999	0	5	[4, 5, 8]	17	0	1	0	n/a	n/a	0.0	0	0	0	catFR2	0	R1029W
2239.12	4.317	2241708	PROB	4.287	n/a	n/a	n/a	-999	0	5	[2, 9, 9]	20	0	1	0	n/a	n/a	0.0	0	0	0	catFR2	0	R1029W
2243.437	5.034	2246025	PROB	5.034	n/a	n/a	n/a	-999	0	5	[6, 3, 1]	10	0	1	0	n/a	n/a	0.0	0	0	0	catFR2	0	R1029W
2248.471	0.017	2251059	STOP	n/a	n/a	n/a	n/a	-999	0	5	[-999, -999, -999]	n/a	0	1	0	n/a	n/a	0.0	0	0	0	catFR2	0	R1029W
2248.488	1.051	2251076	DISTRACT_END	n/a	n/a	n/a	n/a	-999	0	5	[0, 0, 0]	n/a	0	1	0	n/a	n/a	0.0	0	0	0	catFR2	0	R1029W
2249.539	3.515	2252127	REC_START	n/a	n/a	n/a	n/a	-999	0	5	[0, 0, 0]	n/a	0	1	0	n/a	n/a	0.0	0	0	0	catFR2	0	R1029W
2253.054	3.926	2255641	REC_WORD	3.515	n/a	THUNDERSTORM	Weather	1	1	5	[0, 0, 0]	n/a	0	1	0	n/a	n/a	0.0	0	0	0	catFR2	0	R1029W
2256.98	1.924	2259567	REC_WORD_VV	7.441	n/a	<>	n/a	-999	0	5	[0, 0, 0]	n/a	0	1	0	n/a	n/a	0.0	0	0	0	catFR2	0	R1029W
2258.904	2.389	2261491	REC_WORD_VV	9.365	n/a	<>	n/a	-999	0	5	[0, 0, 0]	n/a	0	1	0	n/a	n/a	0.0	0	0	0	catFR2	0	R1029W
2261.293	18.26	2263880	REC_WORD	11.754	n/a	CLOUD	Weather	10	1	5	[0, 0, 0]	n/a	0	1	0	n/a	n/a	0.0	0	0	0	catFR2	0	R1029W
2279.553	2.525	2282138	REC_END	n/a	n/a	n/a	n/a	-999	0	5	[0, 0, 0]	n/a	0	1	0	n/a	n/a	0.0	0	0	0	catFR2	0	R1029W
2282.078	0.0	2284663	TRIAL	n/a	n/a	n/a	n/a	-999	0	6	[0, 0, 0]	n/a	0	1	0	n/a	n/a	0.0	0	0	0	catFR2	0	R1029W
2282.078	10.0	2284663	COUNTDOWN_START	n/a	n/a	n/a	n/a	-999	0	6	[0, 0, 0]	n/a	0	1	0	n/a	n/a	0.0	0	0	0	catFR2	0	R1029W
2292.506	0.007	2295090	COUNTDOWN_END	n/a	n/a	n/a	n/a	-999	0	6	[0, 0, 0]	n/a	0	1	0	n/a	n/a	0.0	0	0	0	catFR2	0	R1029W
2292.513	1.6	2295097	ORIENT	n/a	n/a	n/a	n/a	-999	0	6	[0, 0, 0]	n/a	0	1	0	n/a	n/a	0.0	0	0	0	catFR2	0	R1029W
2295.956	4.6	2298540	STIM_ON	n/a	n/a	n/a	n/a	-999	0	6	[0, 0, 0]	n/a	1	1	4600	GRID52	GRID60	3500.0	50	230	300	catFR2	0	R1029W
2296.164	1.6	2298748	WORD	n/a	wordpools/wordpool_categorized_EN.txt	CALCULATOR	Electronics	1	1	6	[0, 0, 0]	n/a	1	1	4600	GRID52	GRID60	3500.0	50	230	300	catFR2	0	R1029W
2298.699	1.6	2301283	WORD	n/a	wordpools/wordpool_categorized_EN.txt	COMPUTER	Electronics	2	1	6	[0, 0, 0]	n/a	1	1	4600	GRID52	GRID60	3500.0	50	230	300	catFR2	0	R1029W
2301.082	1.6	2303665	WORD	n/a	wordpools/wordpool_categorized_EN.txt	SCOOTER	Vehicles	3	0	6	[0, 0, 0]	n/a	0	1	0	n/a	n/a	0.0	0	0	0	catFR2	0	R1029W
2303.683	1.6	2306266	WORD	n/a	wordpools/wordpool_categorized_EN.txt	JEEP	Vehicles	4	0	6	[0, 0, 0]	n/a	0	1	0	n/a	n/a	0.0	0	0	0	catFR2	0	R1029W
2305.93	4.6	2308513	STIM_ON	n/a	n/a	n/a	n/a	-999	0	6	[0, 0, 0]	n/a	1	1	4600	GRID52	GRID60	3500.0	50	230	300	catFR2	0	R1029W
2306.132	1.6	2308715	WORD	n/a	wordpools/wordpool_categorized_EN.txt	SKIRT	Clothing	5	1	6	[0, 0, 0]	n/a	1	1	4600	GRID52	GRID60	3500.0	50	230	300	catFR2	0	R1029W
2308.566	1.6	2311149	WORD	n/a	wordpools/wordpool_categorized_EN.txt	SHIRT	Clothing	6	0	6	[0, 0, 0]	n/a	1	1	4600	GRID52	GRID60	3500.0	50	230	300	catFR2	0	R1029W
2310.984	1.6	2313567	WORD	n/a	wordpools/wordpool_categorized_EN.txt	PHONE	Electronics	7	0	6	[0, 0, 0]	n/a	0	1	0	n/a	n/a	0.0	0	0	0	catFR2	0	R1029W
2313.501	1.6	2316083	WORD	n/a	wordpools/wordpool_categorized_EN.txt	HEADPHONES	Electronics	8	0	6	[0, 0, 0]	n/a	0	1	0	n/a	n/a	0.0	0	0	0	catFR2	0	R1029W
2315.881	4.6	2318463	STIM_ON	n/a	n/a	n/a	n/a	-999	0	6	[0, 0, 0]	n/a	1	1	4600	GRID52	GRID60	3500.0	50	230	300	catFR2	0	R1029W
2316.085	1.6	2318667	WORD	n/a	wordpools/wordpool_categorized_EN.txt	COAT	Clothing	9	0	6	[0, 0, 0]	n/a	1	1	4600	GRID52	GRID60	3500.0	50	230	300	catFR2	0	R1029W
2318.703	1.6	2321285	WORD	n/a	wordpools/wordpool_categorized_EN.txt	SOCKS	Clothing	10	0	6	[0, 0, 0]	n/a	1	1	4600	GRID52	GRID60	3500.0	50	230	300	catFR2	0	R1029W
2321.302	1.6	2323884	WORD	n/a	wordpools/wordpool_categorized_EN.txt	PLANE	Vehicles	11	0	6	[0, 0, 0]	n/a	0	1	0	n/a	n/a	0.0	0	0	0	catFR2	0	R1029W
2323.87	1.6	2326451	WORD	n/a	wordpools/wordpool_categorized_EN.txt	BIKE	Vehicles	12	0	6	[0, 0, 0]	n/a	0	1	0	n/a	n/a	0.0	0	0	0	catFR2	0	R1029W
2325.486	0.001	2328067	DISTRACT_START	n/a	n/a	n/a	n/a	-999	0	6	[0, 0, 0]	n/a	0	1	0	n/a	n/a	0.0	0	0	0	catFR2	0	R1029W
2325.487	0.016	2328068	START	n/a	n/a	n/a	n/a	-999	0	6	[-999, -999, -999]	n/a	0	1	0	n/a	n/a	0.0	0	0	0	catFR2	0	R1029W
2325.503	10.018	2328084	PROB	9.992	n/a	n/a	n/a	-999	0	6	[7, 3, 5]	15	0	1	0	n/a	n/a	0.0	0	0	0	catFR2	0	R1029W
2335.521	4.685	2338102	PROB	4.662	n/a	n/a	n/a	-999	0	6	[6, 7, 3]	16	0	1	0	n/a	n/a	0.0	0	0	0	catFR2	0	R1029W
2340.206	11.009	2342786	PROB	11.009	n/a	n/a	n/a	-999	0	6	[6, 5, 8]	19	0	1	0	n/a	n/a	0.0	0	0	0	catFR2	0	R1029W
2351.215	0.009	2353794	STOP	n/a	n/a	n/a	n/a	-999	0	6	[-999, -999, -999]	n/a	0	1	0	n/a	n/a	0.0	0	0	0	catFR2	0	R1029W
2351.224	1.119	2353803	DISTRACT_END	n/a	n/a	n/a	n/a	-999	0	6	[0, 0, 0]	n/a	0	1	0	n/a	n/a	0.0	0	0	0	catFR2	0	R1029W
2352.343	3.016	2354922	REC_START	n/a	n/a	n/a	n/a	-999	0	6	[0, 0, 0]	n/a	0	1	0	n/a	n/a	0.0	0	0	0	catFR2	0	R1029W
2355.359	1.0	2357938	REC_WORD_VV	3.016	n/a	<>	n/a	-999	0	6	[0, 0, 0]	n/a	0	1	0	n/a	n/a	0.0	0	0	0	catFR2	0	R1029W
2356.359	2.345	2358938	REC_WORD_VV	4.016	n/a	<>	n/a	-999	0	6	[0, 0, 0]	n/a	0	1	0	n/a	n/a	0.0	0	0	0	catFR2	0	R1029W
2358.704	0.459	2361283	REC_WORD_VV	6.361	n/a	<>	n/a	-999	0	6	[0, 0, 0]	n/a	0	1	0	n/a	n/a	0.0	0	0	0	catFR2	0	R1029W
2359.163	0.659	2361742	REC_WORD	6.82	n/a	CALCULATOR	Electronics	1	1	6	[0, 0, 0]	n/a	0	1	0	n/a	n/a	0.0	0	0	0	catFR2	0	R1029W
2359.822	5.504	2362401	REC_WORD	7.479	n/a	COMPUTER	Electronics	2	1	6	[0, 0, 0]	n/a	0	1	0	n/a	n/a	0.0	0	0	0	catFR2	0	R1029W
2365.326	7.04	2367904	REC_WORD	12.983	n/a	SKIRT	Clothing	5	1	6	[0, 0, 0]	n/a	0	1	0	n/a	n/a	0.0	0	0	0	catFR2	0	R1029W
2372.366	1.0	2374944	REC_WORD_VV	20.023	n/a	<>	n/a	-999	0	6	[0, 0, 0]	n/a	0	1	0	n/a	n/a	0.0	0	0	0	catFR2	0	R1029W
2373.366	2.74	2375943	REC_WORD_VV	21.023	n/a	<>	n/a	-999	0	6	[0, 0, 0]	n/a	0	1	0	n/a	n/a	0.0	0	0	0	catFR2	0	R1029W
2376.106	1.0	2378683	REC_WORD_VV	23.763	n/a	<>	n/a	-999	0	6	[0, 0, 0]	n/a	0	1	0	n/a	n/a	0.0	0	0	0	catFR2	0	R1029W
2377.106	5.246	2379683	REC_WORD_VV	24.763	n/a	<>	n/a	-999	0	6	[0, 0, 0]	n/a	0	1	0	n/a	n/a	0.0	0	0	0	catFR2	0	R1029W
2382.352	20.949	2384929	REC_END	n/a	n/a	n/a	n/a	-999	0	6	[0, 0, 0]	n/a	0	1	0	n/a	n/a	0.0	0	0	0	catFR2	0	R1029W
2403.301	10.0	2405876	COUNTDOWN_START	n/a	n/a	n/a	n/a	-999	0	7	[0, 0, 0]	n/a	0	1	0	n/a	n/a	0.0	0	0	0	catFR2	0	R1029W
2403.301	10.428	2405876	TRIAL	n/a	n/a	n/a	n/a	-999	0	7	[0, 0, 0]	n/a	0	1	0	n/a	n/a	0.0	0	0	0	catFR2	0	R1029W
2413.729	0.008	2416303	COUNTDOWN_END	n/a	n/a	n/a	n/a	-999	0	7	[0, 0, 0]	n/a	0	1	0	n/a	n/a	0.0	0	0	0	catFR2	0	R1029W
2413.737	1.6	2416311	ORIENT	n/a	n/a	n/a	n/a	-999	0	7	[0, 0, 0]	n/a	0	1	0	n/a	n/a	0.0	0	0	0	catFR2	0	R1029W
2417.487	1.6	2420061	WORD	n/a	wordpools/wordpool_categorized_EN.txt	BLOUSE	Clothing	1	1	7	[0, 0, 0]	n/a	0	1	0	n/a	n/a	0.0	0	0	0	catFR2	0	R1029W
2419.954	1.6	2422528	WORD	n/a	wordpools/wordpool_categorized_EN.txt	DRESS	Clothing	2	1	7	[0, 0, 0]	n/a	0	1	0	n/a	n/a	0.0	0	0	0	catFR2	0	R1029W
2422.248	4.6	2424821	STIM_ON	n/a	n/a	n/a	n/a	-999	0	7	[0, 0, 0]	n/a	1	1	4600	GRID52	GRID60	3500.0	50	230	300	catFR2	0	R1029W
2422.455	1.6	2425028	WORD	n/a	wordpools/wordpool_categorized_EN.txt	NIGHTSTAND	Furniture	3	0	7	[0, 0, 0]	n/a	1	1	4600	GRID52	GRID60	3500.0	50	230	300	catFR2	0	R1029W
2424.889	1.6	2427462	WORD	n/a	wordpools/wordpool_categorized_EN.txt	TABLE	Furniture	4	0	7	[0, 0, 0]	n/a	1	1	4600	GRID52	GRID60	3500.0	50	230	300	catFR2	0	R1029W
2427.506	1.6	2430079	WORD	n/a	wordpools/wordpool_categorized_EN.txt	PIE	Desserts	5	0	7	[0, 0, 0]	n/a	0	1	0	n/a	n/a	0.0	0	0	0	catFR2	0	R1029W
2430.056	1.6	2432629	WORD	n/a	wordpools/wordpool_categorized_EN.txt	PASTRY	Desserts	6	0	7	[0, 0, 0]	n/a	0	1	0	n/a	n/a	0.0	0	0	0	catFR2	0	R1029W
2432.467	4.6	2435040	STIM_ON	n/a	n/a	n/a	n/a	-999	0	7	[0, 0, 0]	n/a	1	1	4600	GRID52	GRID60	3500.0	50	230	300	catFR2	0	R1029W
2432.674	1.6	2435247	WORD	n/a	wordpools/wordpool_categorized_EN.txt	UNDERWEAR	Clothing	7	0	7	[0, 0, 0]	n/a	1	1	4600	GRID52	GRID60	3500.0	50	230	300	catFR2	0	R1029W
2435.257	1.6	2437829	WORD	n/a	wordpools/wordpool_categorized_EN.txt	JACKET	Clothing	8	0	7	[0, 0, 0]	n/a	1	1	4600	GRID52	GRID60	3500.0	50	230	300	catFR2	0	R1029W
2437.658	1.6	2440230	WORD	n/a	wordpools/wordpool_categorized_EN.txt	PUDDING	Desserts	9	1	7	[0, 0, 0]	n/a	0	1	0	n/a	n/a	0.0	0	0	0	catFR2	0	R1029W
2440.108	1.6	2442680	WORD	n/a	wordpools/wordpool_categorized_EN.txt	FUDGE	Desserts	10	0	7	[0, 0, 0]	n/a	0	1	0	n/a	n/a	0.0	0	0	0	catFR2	0	R1029W
2442.438	4.6	2445010	STIM_ON	n/a	n/a	n/a	n/a	-999	0	7	[0, 0, 0]	n/a	1	1	4600	GRID52	GRID60	3500.0	50	230	300	catFR2	0	R1029W
2442.643	1.6	2445215	WORD	n/a	wordpools/wordpool_categorized_EN.txt	RECLINER	Furniture	11	0	7	[0, 0, 0]	n/a	1	1	4600	GRID52	GRID60	3500.0	50	230	300	catFR2	0	R1029W
2445.175	1.6	2447747	WORD	n/a	wordpools/wordpool_categorized_EN.txt	BOOKCASE	Furniture	12	0	7	[0, 0, 0]	n/a	1	1	4600	GRID52	GRID60	3500.0	50	230	300	catFR2	0	R1029W
2446.776	0.002	2449347	DISTRACT_START	n/a	n/a	n/a	n/a	-999	0	7	[0, 0, 0]	n/a	0	1	0	n/a	n/a	0.0	0	0	0	catFR2	0	R1029W
2446.778	0.015	2449349	START	n/a	n/a	n/a	n/a	-999	0	7	[-999, -999, -999]	n/a	0	1	0	n/a	n/a	0.0	0	0	0	catFR2	0	R1029W
2446.793	4.817	2449364	PROB	4.782	n/a	n/a	n/a	-999	0	7	[3, 1, 6]	10	0	1	0	n/a	n/a	0.0	0	0	0	catFR2	0	R1029W
2451.61	4.734	2454181	PROB	4.701	n/a	n/a	n/a	-999	0	7	[7, 7, 4]	18	0	1	0	n/a	n/a	0.0	0	0	0	catFR2	0	R1029W
2456.344	15.575	2458915	PROB	15.575	n/a	n/a	n/a	-999	0	7	[2, 5, 5]	12	0	1	0	n/a	n/a	0.0	0	0	0	catFR2	0	R1029W
2471.919	0.012	2474488	STOP	n/a	n/a	n/a	n/a	-999	0	7	[-999, -999, -999]	n/a	0	1	0	n/a	n/a	0.0	0	0	0	catFR2	0	R1029W
2471.931	1.117	2474500	DISTRACT_END	n/a	n/a	n/a	n/a	-999	0	7	[0, 0, 0]	n/a	0	1	0	n/a	n/a	0.0	0	0	0	catFR2	0	R1029W
2473.048	2.479	2475617	REC_START	n/a	n/a	n/a	n/a	-999	0	7	[0, 0, 0]	n/a	0	1	0	n/a	n/a	0.0	0	0	0	catFR2	0	R1029W
2475.527	0.975	2478096	REC_WORD	2.479	n/a	BLOUSE	Clothing	1	1	7	[0, 0, 0]	n/a	0	1	0	n/a	n/a	0.0	0	0	0	catFR2	0	R1029W
2476.502	9.031	2479071	REC_WORD	3.454	n/a	DRESS	Clothing	2	1	7	[0, 0, 0]	n/a	0	1	0	n/a	n/a	0.0	0	0	0	catFR2	0	R1029W
2485.533	17.525	2488101	REC_WORD	12.485	n/a	PUDDING	Desserts	9	1	7	[0, 0, 0]	n/a	0	1	0	n/a	n/a	0.0	0	0	0	catFR2	0	R1029W
2503.058	3.146	2505625	REC_END	n/a	n/a	n/a	n/a	-999	0	7	[0, 0, 0]	n/a	0	1	0	n/a	n/a	0.0	0	0	0	catFR2	0	R1029W
2506.204	0.0	2508771	TRIAL	n/a	n/a	n/a	n/a	-999	0	8	[0, 0, 0]	n/a	0	1	0	n/a	n/a	0.0	0	0	0	catFR2	0	R1029W
2506.204	10.0	2508771	COUNTDOWN_START	n/a	n/a	n/a	n/a	-999	0	8	[0, 0, 0]	n/a	0	1	0	n/a	n/a	0.0	0	0	0	catFR2	0	R1029W
2516.632	0.008	2519198	COUNTDOWN_END	n/a	n/a	n/a	n/a	-999	0	8	[0, 0, 0]	n/a	0	1	0	n/a	n/a	0.0	0	0	0	catFR2	0	R1029W
2516.64	1.6	2519206	ORIENT	n/a	n/a	n/a	n/a	-999	0	8	[0, 0, 0]	n/a	0	1	0	n/a	n/a	0.0	0	0	0	catFR2	0	R1029W
2520.387	4.6	2522953	STIM_ON	n/a	n/a	n/a	n/a	-999	0	8	[0, 0, 0]	n/a	1	1	4600	GRID52	GRID60	3500.0	50	230	300	catFR2	0	R1029W
2520.59	1.6	2523155	WORD	n/a	wordpools/wordpool_categorized_EN.txt	WHALE	OceanAnimals	1	0	8	[0, 0, 0]	n/a	1	1	4600	GRID52	GRID60	3500.0	50	230	300	catFR2	0	R1029W
2523.023	1.6	2525588	WORD	n/a	wordpools/wordpool_categorized_EN.txt	OYSTER	OceanAnimals	2	0	8	[0, 0, 0]	n/a	1	1	4600	GRID52	GRID60	3500.0	50	230	300	catFR2	0	R1029W
2525.407	1.6	2527972	WORD	n/a	wordpools/wordpool_categorized_EN.txt	BED	Furniture	3	0	8	[0, 0, 0]	n/a	0	1	0	n/a	n/a	0.0	0	0	0	catFR2	0	R1029W
2527.875	1.6	2530440	WORD	n/a	wordpools/wordpool_categorized_EN.txt	CABINET	Furniture	4	0	8	[0, 0, 0]	n/a	0	1	0	n/a	n/a	0.0	0	0	0	catFR2	0	R1029W
2530.219	4.6	2532784	STIM_ON	n/a	n/a	n/a	n/a	-999	0	8	[0, 0, 0]	n/a	1	1	4600	GRID52	GRID60	3500.0	50	230	300	catFR2	0	R1029W
2530.425	1.6	2532990	WORD	n/a	wordpools/wordpool_categorized_EN.txt	SODA	Beverages	5	0	8	[0, 0, 0]	n/a	1	1	4600	GRID52	GRID60	3500.0	50	230	300	catFR2	0	R1029W
2532.959	1.6	2535523	WORD	n/a	wordpools/wordpool_categorized_EN.txt	MILK	Beverages	6	0	8	[0, 0, 0]	n/a	1	1	4600	GRID52	GRID60	3500.0	50	230	300	catFR2	0	R1029W
2535.392	1.6	2537956	WORD	n/a	wordpools/wordpool_categorized_EN.txt	TURTLE	OceanAnimals	7	0	8	[0, 0, 0]	n/a	0	1	0	n/a	n/a	0.0	0	0	0	catFR2	0	R1029W
2537.976	1.6	2540540	WORD	n/a	wordpools/wordpool_categorized_EN.txt	DOLPHIN	OceanAnimals	8	0	8	[0, 0, 0]	n/a	0	1	0	n/a	n/a	0.0	0	0	0	catFR2	0	R1029W
2540.324	4.6	2542888	STIM_ON	n/a	n/a	n/a	n/a	-999	0	8	[0, 0, 0]	n/a	1	1	4600	GRID52	GRID60	3500.0	50	230	300	catFR2	0	R1029W
2540.526	1.6	2543090	WORD	n/a	wordpools/wordpool_categorized_EN.txt	RUM	Beverages	9	0	8	[0, 0, 0]	n/a	1	1	4600	GRID52	GRID60	3500.0	50	230	300	catFR2	0	R1029W
2542.927	1.6	2545491	WORD	n/a	wordpools/wordpool_categorized_EN.txt	COFFEE	Beverages	10	1	8	[0, 0, 0]	n/a	1	1	4600	GRID52	GRID60	3500.0	50	230	300	catFR2	0	R1029W
2545.561	1.6	2548124	WORD	n/a	wordpools/wordpool_categorized_EN.txt	DRESSER	Furniture	11	0	8	[0, 0, 0]	n/a	0	1	0	n/a	n/a	0.0	0	0	0	catFR2	0	R1029W
2548.095	1.6	2550658	WORD	n/a	wordpools/wordpool_categorized_EN.txt	SHELF	Furniture	12	0	8	[0, 0, 0]	n/a	0	1	0	n/a	n/a	0.0	0	0	0	catFR2	0	R1029W
2549.713	0.001	2552276	DISTRACT_START	n/a	n/a	n/a	n/a	-999	0	8	[0, 0, 0]	n/a	0	1	0	n/a	n/a	0.0	0	0	0	catFR2	0	R1029W
2549.714	0.015	2552277	START	n/a	n/a	n/a	n/a	-999	0	8	[-999, -999, -999]	n/a	0	1	0	n/a	n/a	0.0	0	0	0	catFR2	0	R1029W
2549.729	3.65	2552292	PROB	3.63	n/a	n/a	n/a	-999	0	8	[3, 4, 7]	14	0	1	0	n/a	n/a	0.0	0	0	0	catFR2	0	R1029W
2553.379	6.502	2555942	PROB	6.469	n/a	n/a	n/a	-999	0	8	[2, 9, 6]	17	0	1	0	n/a	n/a	0.0	0	0	0	catFR2	0	R1029W
2559.881	4.05	2562443	PROB	4.015	n/a	n/a	n/a	-999	0	8	[4, 6, 6]	16	0	1	0	n/a	n/a	0.0	0	0	0	catFR2	0	R1029W
2563.931	5.068	2566493	PROB	5.044	n/a	n/a	n/a	-999	0	8	[9, 3, 3]	15	0	1	0	n/a	n/a	0.0	0	0	0	catFR2	0	R1029W
2568.999	3.761	2571561	PROB	3.761	n/a	n/a	n/a	-999	0	8	[9, 2, 3]	14	0	1	0	n/a	n/a	0.0	0	0	0	catFR2	0	R1029W
2572.76	0.007	2575321	STOP	n/a	n/a	n/a	n/a	-999	0	8	[-999, -999, -999]	n/a	0	1	0	n/a	n/a	0.0	0	0	0	catFR2	0	R1029W
2572.767	1.133	2575328	DISTRACT_END	n/a	n/a	n/a	n/a	-999	0	8	[0, 0, 0]	n/a	0	1	0	n/a	n/a	0.0	0	0	0	catFR2	0	R1029W
2573.9	1.9	2576461	REC_START	n/a	n/a	n/a	n/a	-999	0	8	[0, 0, 0]	n/a	0	1	0	n/a	n/a	0.0	0	0	0	catFR2	0	R1029W
2575.8	20.322	2578361	REC_WORD_VV	1.9	n/a	<>	n/a	-999	0	8	[0, 0, 0]	n/a	0	1	0	n/a	n/a	0.0	0	0	0	catFR2	0	R1029W
2596.122	5.223	2598681	REC_WORD	22.222	n/a	COFFEE	Beverages	10	1	8	[0, 0, 0]	n/a	0	1	0	n/a	n/a	0.0	0	0	0	catFR2	0	R1029W
2601.345	2.569	2603904	REC_WORD_VV	27.445	n/a	<>	n/a	-999	0	8	[0, 0, 0]	n/a	0	1	0	n/a	n/a	0.0	0	0	0	catFR2	0	R1029W
2603.914	2.776	2606473	REC_END	n/a	n/a	n/a	n/a	-999	0	8	[0, 0, 0]	n/a	0	1	0	n/a	n/a	0.0	0	0	0	catFR2	0	R1029W
2606.69	0.0	2609249	TRIAL	n/a	n/a	n/a	n/a	-999	0	9	[0, 0, 0]	n/a	0	1	0	n/a	n/a	0.0	0	0	0	catFR2	0	R1029W
2606.69	10.0	2609249	COUNTDOWN_START	n/a	n/a	n/a	n/a	-999	0	9	[0, 0, 0]	n/a	0	1	0	n/a	n/a	0.0	0	0	0	catFR2	0	R1029W
2617.118	0.007	2619676	COUNTDOWN_END	n/a	n/a	n/a	n/a	-999	0	9	[0, 0, 0]	n/a	0	1	0	n/a	n/a	0.0	0	0	0	catFR2	0	R1029W
2617.125	1.6	2619683	ORIENT	n/a	n/a	n/a	n/a	-999	0	9	[0, 0, 0]	n/a	0	1	0	n/a	n/a	0.0	0	0	0	catFR2	0	R1029W
2620.482	4.6	2623039	STIM_ON	n/a	n/a	n/a	n/a	-999	0	9	[0, 0, 0]	n/a	1	1	4600	GRID52	GRID60	3500.0	50	230	300	catFR2	0	R1029W
2620.693	1.6	2623250	WORD	n/a	wordpools/wordpool_categorized_EN.txt	SQUID	OceanAnimals	1	1	9	[0, 0, 0]	n/a	1	1	4600	GRID52	GRID60	3500.0	50	230	300	catFR2	0	R1029W
2623.176	1.6	2625733	WORD	n/a	wordpools/wordpool_categorized_EN.txt	PLANKTON	OceanAnimals	2	0	9	[0, 0, 0]	n/a	1	1	4600	GRID52	GRID60	3500.0	50	230	300	catFR2	0	R1029W
2625.777	1.6	2628334	WORD	n/a	wordpools/wordpool_categorized_EN.txt	PEELER	KitchenTools	3	0	9	[0, 0, 0]	n/a	0	1	0	n/a	n/a	0.0	0	0	0	catFR2	0	R1029W
2628.343	1.6	2630900	WORD	n/a	wordpools/wordpool_categorized_EN.txt	COLANDER	KitchenTools	4	0	9	[0, 0, 0]	n/a	0	1	0	n/a	n/a	0.0	0	0	0	catFR2	0	R1029W
2630.576	4.6	2633133	STIM_ON	n/a	n/a	n/a	n/a	-999	0	9	[0, 0, 0]	n/a	1	1	4600	GRID52	GRID60	3500.0	50	230	300	catFR2	0	R1029W
2630.778	1.6	2633335	WORD	n/a	wordpools/wordpool_categorized_EN.txt	SEAGULL	Birds	5	0	9	[0, 0, 0]	n/a	1	1	4600	GRID52	GRID60	3500.0	50	230	300	catFR2	0	R1029W
2633.261	1.6	2635817	WORD	n/a	wordpools/wordpool_categorized_EN.txt	CROW	Birds	6	0	9	[0, 0, 0]	n/a	1	1	4600	GRID52	GRID60	3500.0	50	230	300	catFR2	0	R1029W
2635.862	1.6	2638418	WORD	n/a	wordpools/wordpool_categorized_EN.txt	SPATULA	KitchenTools	7	0	9	[0, 0, 0]	n/a	0	1	0	n/a	n/a	0.0	0	0	0	catFR2	0	R1029W
2638.245	1.6	2640801	WORD	n/a	wordpools/wordpool_categorized_EN.txt	STRAINER	KitchenTools	8	0	9	[0, 0, 0]	n/a	0	1	0	n/a	n/a	0.0	0	0	0	catFR2	0	R1029W
2640.472	4.6	2643028	STIM_ON	n/a	n/a	n/a	n/a	-999	0	9	[0, 0, 0]	n/a	1	1	4600	GRID52	GRID60	3500.0	50	230	300	catFR2	0	R1029W
2640.68	1.6	2643236	WORD	n/a	wordpools/wordpool_categorized_EN.txt	SHRIMP	OceanAnimals	9	1	9	[0, 0, 0]	n/a	1	1	4600	GRID52	GRID60	3500.0	50	230	300	catFR2	0	R1029W
2643.113	1.6	2645669	WORD	n/a	wordpools/wordpool_categorized_EN.txt	LOBSTER	OceanAnimals	10	1	9	[0, 0, 0]	n/a	1	1	4600	GRID52	GRID60	3500.0	50	230	300	catFR2	0	R1029W
2645.597	1.6	2648152	WORD	n/a	wordpools/wordpool_categorized_EN.txt	GOOSE	Birds	11	0	9	[0, 0, 0]	n/a	0	1	0	n/a	n/a	0.0	0	0	0	catFR2	0	R1029W
2648.164	1.6	2650719	WORD	n/a	wordpools/wordpool_categorized_EN.txt	SPARROW	Birds	12	0	9	[0, 0, 0]	n/a	0	1	0	n/a	n/a	0.0	0	0	0	catFR2	0	R1029W
2649.765	0.0	2652320	DISTRACT_START	n/a	n/a	n/a	n/a	-999	0	9	[0, 0, 0]	n/a	0	1	0	n/a	n/a	0.0	0	0	0	catFR2	0	R1029W
2649.765	0.017	2652320	START	n/a	n/a	n/a	n/a	-999	0	9	[-999, -999, -999]	n/a	0	1	0	n/a	n/a	0.0	0	0	0	catFR2	0	R1029W
2649.782	9.834	2652337	PROB	9.809	n/a	n/a	n/a	-999	0	9	[6, 1, 4]	11	0	1	0	n/a	n/a	0.0	0	0	0	catFR2	0	R1029W
2659.616	3.301	2662170	PROB	3.272	n/a	n/a	n/a	-999	0	9	[1, 4, 3]	6	0	1	0	n/a	n/a	0.0	0	0	0	catFR2	0	R1029W
2662.917	4.517	2665471	PROB	4.482	n/a	n/a	n/a	-999	0	9	[1, 1, 1]	3	0	1	0	n/a	n/a	0.0	0	0	0	catFR2	0	R1029W
2667.434	7.589	2669988	PROB	7.589	n/a	n/a	n/a	-999	0	9	[2, 9, 7]	18	0	1	0	n/a	n/a	0.0	0	0	0	catFR2	0	R1029W
2675.023	0.013	2677576	STOP	n/a	n/a	n/a	n/a	-999	0	9	[-999, -999, -999]	n/a	0	1	0	n/a	n/a	0.0	0	0	0	catFR2	0	R1029W
2675.036	1.05	2677589	DISTRACT_END	n/a	n/a	n/a	n/a	-999	0	9	[0, 0, 0]	n/a	0	1	0	n/a	n/a	0.0	0	0	0	catFR2	0	R1029W
2676.086	3.042	2678639	REC_START	n/a	n/a	n/a	n/a	-999	0	9	[0, 0, 0]	n/a	0	1	0	n/a	n/a	0.0	0	0	0	catFR2	0	R1029W
2679.128	1.273	2681681	REC_WORD	3.042	n/a	SQUID	OceanAnimals	1	1	9	[0, 0, 0]	n/a	0	1	0	n/a	n/a	0.0	0	0	0	catFR2	0	R1029W
2680.401	0.724	2682954	REC_WORD	4.315	n/a	LOBSTER	OceanAnimals	10	1	9	[0, 0, 0]	n/a	0	1	0	n/a	n/a	0.0	0	0	0	catFR2	0	R1029W
2681.125	2.857	2683677	REC_WORD	5.039	n/a	SHRIMP	OceanAnimals	9	1	9	[0, 0, 0]	n/a	0	1	0	n/a	n/a	0.0	0	0	0	catFR2	0	R1029W
2683.982	22.118	2686534	REC_WORD_VV	7.896	n/a	<>	n/a	-999	0	9	[0, 0, 0]	n/a	0	1	0	n/a	n/a	0.0	0	0	0	catFR2	0	R1029W
2706.1	2.108	2708650	REC_END	n/a	n/a	n/a	n/a	-999	0	9	[0, 0, 0]	n/a	0	1	0	n/a	n/a	0.0	0	0	0	catFR2	0	R1029W
2708.208	10.0	2710758	COUNTDOWN_START	n/a	n/a	n/a	n/a	-999	0	10	[0, 0, 0]	n/a	0	1	0	n/a	n/a	0.0	0	0	0	catFR2	0	R1029W
2708.209	10.427	2710759	TRIAL	n/a	n/a	n/a	n/a	-999	0	10	[0, 0, 0]	n/a	0	1	0	n/a	n/a	0.0	0	0	0	catFR2	0	R1029W
2718.636	0.009	2721185	COUNTDOWN_END	n/a	n/a	n/a	n/a	-999	0	10	[0, 0, 0]	n/a	0	1	0	n/a	n/a	0.0	0	0	0	catFR2	0	R1029W
2718.645	1.6	2721194	ORIENT	n/a	n/a	n/a	n/a	-999	0	10	[0, 0, 0]	n/a	0	1	0	n/a	n/a	0.0	0	0	0	catFR2	0	R1029W
2722.12	4.6	2724669	STIM_ON	n/a	n/a	n/a	n/a	-999	0	10	[0, 0, 0]	n/a	1	1	4600	GRID52	GRID60	3500.0	50	230	300	catFR2	0	R1029W
2722.328	1.6	2724877	WORD	n/a	wordpools/wordpool_categorized_EN.txt	VALLEY	Landscapes	1	1	10	[0, 0, 0]	n/a	1	1	4600	GRID52	GRID60	3500.0	50	230	300	catFR2	0	R1029W
2724.912	1.6	2727461	WORD	n/a	wordpools/wordpool_categorized_EN.txt	CREEK	Landscapes	2	0	10	[0, 0, 0]	n/a	1	1	4600	GRID52	GRID60	3500.0	50	230	300	catFR2	0	R1029W
2727.445	1.6	2729994	WORD	n/a	wordpools/wordpool_categorized_EN.txt	BALL	Toys	3	0	10	[0, 0, 0]	n/a	0	1	0	n/a	n/a	0.0	0	0	0	catFR2	0	R1029W
2729.863	1.6	2732412	WORD	n/a	wordpools/wordpool_categorized_EN.txt	FOOTBALL	Toys	4	0	10	[0, 0, 0]	n/a	0	1	0	n/a	n/a	0.0	0	0	0	catFR2	0	R1029W
2732.275	4.6	2734823	STIM_ON	n/a	n/a	n/a	n/a	-999	0	10	[0, 0, 0]	n/a	1	1	4600	GRID52	GRID60	3500.0	50	230	300	catFR2	0	R1029W
2732.48	1.6	2735028	WORD	n/a	wordpools/wordpool_categorized_EN.txt	DOOR	Building	5	0	10	[0, 0, 0]	n/a	1	1	4600	GRID52	GRID60	3500.0	50	230	300	catFR2	0	R1029W
2734.93	1.6	2737478	WORD	n/a	wordpools/wordpool_categorized_EN.txt	ROOM	Building	6	0	10	[0, 0, 0]	n/a	1	1	4600	GRID52	GRID60	3500.0	50	230	300	catFR2	0	R1029W
2737.364	1.6	2739912	WORD	n/a	wordpools/wordpool_categorized_EN.txt	BLOCKS	Toys	7	0	10	[0, 0, 0]	n/a	0	1	0	n/a	n/a	0.0	0	0	0	catFR2	0	R1029W
2739.815	1.6	2742363	WORD	n/a	wordpools/wordpool_categorized_EN.txt	BASKETBALL	Toys	8	0	10	[0, 0, 0]	n/a	0	1	0	n/a	n/a	0.0	0	0	0	catFR2	0	R1029W
2742.173	4.6	2744721	STIM_ON	n/a	n/a	n/a	n/a	-999	0	10	[0, 0, 0]	n/a	1	1	4600	GRID52	GRID60	3500.0	50	230	300	catFR2	0	R1029W
2742.381	1.6	2744928	WORD	n/a	wordpools/wordpool_categorized_EN.txt	BEACH	Landscapes	9	0	10	[0, 0, 0]	n/a	1	1	4600	GRID52	GRID60	3500.0	50	230	300	catFR2	0	R1029W
2744.932	1.6	2747479	WORD	n/a	wordpools/wordpool_categorized_EN.txt	FOREST	Landscapes	10	0	10	[0, 0, 0]	n/a	1	1	4600	GRID52	GRID60	3500.0	50	230	300	catFR2	0	R1029W
2747.466	1.6	2750013	WORD	n/a	wordpools/wordpool_categorized_EN.txt	BATHROOM	Building	11	0	10	[0, 0, 0]	n/a	0	1	0	n/a	n/a	0.0	0	0	0	catFR2	0	R1029W
2749.966	1.6	2752513	WORD	n/a	wordpools/wordpool_categorized_EN.txt	FLOOR	Building	12	0	10	[0, 0, 0]	n/a	0	1	0	n/a	n/a	0.0	0	0	0	catFR2	0	R1029W
2751.583	0.001	2754130	DISTRACT_START	n/a	n/a	n/a	n/a	-999	0	10	[0, 0, 0]	n/a	0	1	0	n/a	n/a	0.0	0	0	0	catFR2	0	R1029W
2751.584	0.016	2754131	START	n/a	n/a	n/a	n/a	-999	0	10	[-999, -999, -999]	n/a	0	1	0	n/a	n/a	0.0	0	0	0	catFR2	0	R1029W
2751.6	13.669	2754147	PROB	13.639	n/a	n/a	n/a	-999	0	10	[6, 9, 8]	2	0	1	0	n/a	n/a	0.0	0	0	0	catFR2	0	R1029W
2765.269	6.642	2767815	PROB	6.642	n/a	n/a	n/a	-999	0	10	[7, 1, 3]	11	0	1	0	n/a	n/a	0.0	0	0	0	catFR2	0	R1029W
2771.911	0.009	2774456	STOP	n/a	n/a	n/a	n/a	-999	0	10	[-999, -999, -999]	n/a	0	1	0	n/a	n/a	0.0	0	0	0	catFR2	0	R1029W
2771.92	1.168	2774465	DISTRACT_END	n/a	n/a	n/a	n/a	-999	0	10	[0, 0, 0]	n/a	0	1	0	n/a	n/a	0.0	0	0	0	catFR2	0	R1029W
2773.088	3.492	2775633	REC_START	n/a	n/a	n/a	n/a	-999	0	10	[0, 0, 0]	n/a	0	1	0	n/a	n/a	0.0	0	0	0	catFR2	0	R1029W
2776.58	1.801	2779125	REC_WORD	3.492	n/a	VALLEY	Landscapes	1	1	10	[0, 0, 0]	n/a	0	1	0	n/a	n/a	0.0	0	0	0	catFR2	0	R1029W
2778.381	2.006	2780926	REC_WORD_VV	5.293	n/a	<>	n/a	-999	0	10	[0, 0, 0]	n/a	0	1	0	n/a	n/a	0.0	0	0	0	catFR2	0	R1029W
2780.387	3.805	2782931	REC_WORD	7.299	n/a	CLIFF	n/a	-999	0	10	[0, 0, 0]	n/a	0	1	0	n/a	n/a	0.0	0	0	0	catFR2	0	R1029W
2784.192	15.609	2786736	REC_WORD_VV	11.104	n/a	<>	n/a	-999	0	10	[0, 0, 0]	n/a	0	1	0	n/a	n/a	0.0	0	0	0	catFR2	0	R1029W
2799.801	3.298	2802344	REC_WORD	26.713	n/a	VACUUM	n/a	-999	0	10	[0, 0, 0]	n/a	0	1	0	n/a	n/a	0.0	0	0	0	catFR2	0	R1029W
2803.099	1.795	2805642	REC_END	n/a	n/a	n/a	n/a	-999	0	10	[0, 0, 0]	n/a	0	1	0	n/a	n/a	0.0	0	0	0	catFR2	0	R1029W
2804.894	10.0	2807436	COUNTDOWN_START	n/a	n/a	n/a	n/a	-999	0	11	[0, 0, 0]	n/a	0	1	0	n/a	n/a	0.0	0	0	0	catFR2	0	R1029W
2804.895	10.427	2807437	TRIAL	n/a	n/a	n/a	n/a	-999	0	11	[0, 0, 0]	n/a	0	1	0	n/a	n/a	0.0	0	0	0	catFR2	0	R1029W
2815.322	0.007	2817864	COUNTDOWN_END	n/a	n/a	n/a	n/a	-999	0	11	[0, 0, 0]	n/a	0	1	0	n/a	n/a	0.0	0	0	0	catFR2	0	R1029W
2815.329	1.6	2817871	ORIENT	n/a	n/a	n/a	n/a	-999	0	11	[0, 0, 0]	n/a	0	1	0	n/a	n/a	0.0	0	0	0	catFR2	0	R1029W
2818.929	1.6	2821470	WORD	n/a	wordpools/wordpool_categorized_EN.txt	TULIP	Flowers	1	0	11	[0, 0, 0]	n/a	0	1	0	n/a	n/a	0.0	0	0	0	catFR2	0	R1029W
2821.546	1.6	2824087	WORD	n/a	wordpools/wordpool_categorized_EN.txt	DAFFODIL	Flowers	2	0	11	[0, 0, 0]	n/a	0	1	0	n/a	n/a	0.0	0	0	0	catFR2	0	R1029W
2823.793	4.6	2826334	STIM_ON	n/a	n/a	n/a	n/a	-999	0	11	[0, 0, 0]	n/a	1	1	4600	GRID52	GRID60	3500.0	50	230	300	catFR2	0	R1029W
2823.997	1.6	2826538	WORD	n/a	wordpools/wordpool_categorized_EN.txt	ROACH	Insects	3	0	11	[0, 0, 0]	n/a	1	1	4600	GRID52	GRID60	3500.0	50	230	300	catFR2	0	R1029W
2826.397	1.6	2828938	WORD	n/a	wordpools/wordpool_categorized_EN.txt	SPIDER	Insects	4	0	11	[0, 0, 0]	n/a	1	1	4600	GRID52	GRID60	3500.0	50	230	300	catFR2	0	R1029W
2828.882	1.6	2831422	WORD	n/a	wordpools/wordpool_categorized_EN.txt	TRUCK	Vehicles	5	0	11	[0, 0, 0]	n/a	0	1	0	n/a	n/a	0.0	0	0	0	catFR2	0	R1029W
2831.432	1.6	2833972	WORD	n/a	wordpools/wordpool_categorized_EN.txt	TRAIN	Vehicles	6	0	11	[0, 0, 0]	n/a	0	1	0	n/a	n/a	0.0	0	0	0	catFR2	0	R1029W
2833.792	4.6	2836332	STIM_ON	n/a	n/a	n/a	n/a	-999	0	11	[0, 0, 0]	n/a	1	1	4600	GRID52	GRID60	3500.0	50	230	300	catFR2	0	R1029W
2833.999	1.6	2836539	WORD	n/a	wordpools/wordpool_categorized_EN.txt	ANT	Insects	7	0	11	[0, 0, 0]	n/a	1	1	4600	GRID52	GRID60	3500.0	50	230	300	catFR2	0	R1029W
2836.634	1.6	2839174	WORD	n/a	wordpools/wordpool_categorized_EN.txt	MOSQUITO	Insects	8	0	11	[0, 0, 0]	n/a	1	1	4600	GRID52	GRID60	3500.0	50	230	300	catFR2	0	R1029W
2839.183	1.6	2841723	WORD	n/a	wordpools/wordpool_categorized_EN.txt	ROSE	Flowers	9	0	11	[0, 0, 0]	n/a	0	1	0	n/a	n/a	0.0	0	0	0	catFR2	0	R1029W
2841.617	1.6	2844156	WORD	n/a	wordpools/wordpool_categorized_EN.txt	VIOLET	Flowers	10	0	11	[0, 0, 0]	n/a	0	1	0	n/a	n/a	0.0	0	0	0	catFR2	0	R1029W
2844.014	4.6	2846553	STIM_ON	n/a	n/a	n/a	n/a	-999	0	11	[0, 0, 0]	n/a	1	1	4600	GRID52	GRID60	3500.0	50	230	300	catFR2	0	R1029W
2844.217	1.6	2846756	WORD	n/a	wordpools/wordpool_categorized_EN.txt	MOTORCYCLE	Vehicles	11	0	11	[0, 0, 0]	n/a	1	1	4600	GRID52	GRID60	3500.0	50	230	300	catFR2	0	R1029W
2846.752	1.6	2849291	WORD	n/a	wordpools/wordpool_categorized_EN.txt	BUS	Vehicles	12	0	11	[0, 0, 0]	n/a	1	1	4600	GRID52	GRID60	3500.0	50	230	300	catFR2	0	R1029W
2848.368	0.001	2850907	DISTRACT_START	n/a	n/a	n/a	n/a	-999	0	11	[0, 0, 0]	n/a	0	1	0	n/a	n/a	0.0	0	0	0	catFR2	0	R1029W
2848.369	0.016	2850908	START	n/a	n/a	n/a	n/a	-999	0	11	[-999, -999, -999]	n/a	0	1	0	n/a	n/a	0.0	0	0	0	catFR2	0	R1029W
2848.385	5.469	2850924	PROB	5.439	n/a	n/a	n/a	-999	0	11	[3, 4, 7]	14	0	1	0	n/a	n/a	0.0	0	0	0	catFR2	0	R1029W
2853.854	3.616	2856392	PROB	3.585	n/a	n/a	n/a	-999	0	11	[4, 6, 9]	19	0	1	0	n/a	n/a	0.0	0	0	0	catFR2	0	R1029W
2857.47	3.967	2860008	PROB	3.937	n/a	n/a	n/a	-999	0	11	[7, 8, 3]	18	0	1	0	n/a	n/a	0.0	0	0	0	catFR2	0	R1029W
2861.437	7.738	2863975	PROB	7.738	n/a	n/a	n/a	-999	0	11	[9, 1, 5]	15	0	1	0	n/a	n/a	0.0	0	0	0	catFR2	0	R1029W
2869.175	0.014	2871712	STOP	n/a	n/a	n/a	n/a	-999	0	11	[-999, -999, -999]	n/a	0	1	0	n/a	n/a	0.0	0	0	0	catFR2	0	R1029W
2869.189	1.168	2871726	DISTRACT_END	n/a	n/a	n/a	n/a	-999	0	11	[0, 0, 0]	n/a	0	1	0	n/a	n/a	0.0	0	0	0	catFR2	0	R1029W
2870.357	3.993	2872894	REC_START	n/a	n/a	n/a	n/a	-999	0	11	[0, 0, 0]	n/a	0	1	0	n/a	n/a	0.0	0	0	0	catFR2	0	R1029W
2874.35	0.998	2876887	REC_WORD_VV	3.993	n/a	<>	n/a	-999	0	11	[0, 0, 0]	n/a	0	1	0	n/a	n/a	0.0	0	0	0	catFR2	0	R1029W
2875.348	1.0	2877885	REC_WORD_VV	4.991	n/a	<>	n/a	-999	0	11	[0, 0, 0]	n/a	0	1	0	n/a	n/a	0.0	0	0	0	catFR2	0	R1029W
2876.348	1.0	2878885	REC_WORD_VV	5.991	n/a	<>	n/a	-999	0	11	[0, 0, 0]	n/a	0	1	0	n/a	n/a	0.0	0	0	0	catFR2	0	R1029W
2877.348	4.726	2879885	REC_WORD_VV	6.991	n/a	<>	n/a	-999	0	11	[0, 0, 0]	n/a	0	1	0	n/a	n/a	0.0	0	0	0	catFR2	0	R1029W
2882.074	1.001	2884610	REC_WORD_VV	11.717	n/a	<>	n/a	-999	0	11	[0, 0, 0]	n/a	0	1	0	n/a	n/a	0.0	0	0	0	catFR2	0	R1029W
2883.075	2.637	2885611	REC_WORD_VV	12.718	n/a	<>	n/a	-999	0	11	[0, 0, 0]	n/a	0	1	0	n/a	n/a	0.0	0	0	0	catFR2	0	R1029W
2885.712	1.001	2888248	REC_WORD_VV	15.355	n/a	<>	n/a	-999	0	11	[0, 0, 0]	n/a	0	1	0	n/a	n/a	0.0	0	0	0	catFR2	0	R1029W
2886.713	2.542	2889249	REC_WORD_VV	16.356	n/a	<>	n/a	-999	0	11	[0, 0, 0]	n/a	0	1	0	n/a	n/a	0.0	0	0	0	catFR2	0	R1029W
2889.255	1.0	2891791	REC_WORD_VV	18.898	n/a	<>	n/a	-999	0	11	[0, 0, 0]	n/a	0	1	0	n/a	n/a	0.0	0	0	0	catFR2	0	R1029W
2890.255	8.006	2892790	REC_WORD_VV	19.898	n/a	<>	n/a	-999	0	11	[0, 0, 0]	n/a	0	1	0	n/a	n/a	0.0	0	0	0	catFR2	0	R1029W
2898.261	2.107	2900796	REC_WORD_VV	27.904	n/a	<>	n/a	-999	0	11	[0, 0, 0]	n/a	0	1	0	n/a	n/a	0.0	0	0	0	catFR2	0	R1029W
2900.368	344.858	2902903	REC_END	n/a	n/a	n/a	n/a	-999	0	11	[0, 0, 0]	n/a	0	1	0	n/a	n/a	0.0	0	0	0	catFR2	0	R1029W
3245.226	0.0	3247733	TRIAL	n/a	n/a	n/a	n/a	-999	0	12	[0, 0, 0]	n/a	0	0	0	n/a	n/a	0.0	0	0	0	catFR2	0	R1029W
3245.226	10.0	3247733	COUNTDOWN_START	n/a	n/a	n/a	n/a	-999	0	12	[0, 0, 0]	n/a	0	0	0	n/a	n/a	0.0	0	0	0	catFR2	0	R1029W
3255.654	0.008	3258160	COUNTDOWN_END	n/a	n/a	n/a	n/a	-999	0	12	[0, 0, 0]	n/a	0	0	0	n/a	n/a	0.0	0	0	0	catFR2	0	R1029W
3255.662	1.6	3258168	ORIENT	n/a	n/a	n/a	n/a	-999	0	12	[0, 0, 0]	n/a	0	0	0	n/a	n/a	0.0	0	0	0	catFR2	0	R1029W
3259.112	1.6	3261618	WORD	n/a	wordpools/wordpool_categorized_EN.txt	HUMIDITY	Weather	1	0	12	[0, 0, 0]	n/a	0	0	0	n/a	n/a	0.0	0	0	0	catFR2	0	R1029W
3261.513	1.6	3264018	WORD	n/a	wordpools/wordpool_categorized_EN.txt	LIGHTNING	Weather	2	1	12	[0, 0, 0]	n/a	0	0	0	n/a	n/a	0.0	0	0	0	catFR2	0	R1029W
3264.013	1.6	3266518	WORD	n/a	wordpools/wordpool_categorized_EN.txt	CELERY	Vegetables	3	0	12	[0, 0, 0]	n/a	0	0	0	n/a	n/a	0.0	0	0	0	catFR2	0	R1029W
3266.447	1.6	3268952	WORD	n/a	wordpools/wordpool_categorized_EN.txt	CUCUMBER	Vegetables	4	0	12	[0, 0, 0]	n/a	0	0	0	n/a	n/a	0.0	0	0	0	catFR2	0	R1029W
3268.981	1.6	3271486	WORD	n/a	wordpools/wordpool_categorized_EN.txt	MARIGOLD	Flowers	5	0	12	[0, 0, 0]	n/a	0	0	0	n/a	n/a	0.0	0	0	0	catFR2	0	R1029W
3271.464	1.6	3273969	WORD	n/a	wordpools/wordpool_categorized_EN.txt	DAISY	Flowers	6	1	12	[0, 0, 0]	n/a	0	0	0	n/a	n/a	0.0	0	0	0	catFR2	0	R1029W
3273.849	1.6	3276353	WORD	n/a	wordpools/wordpool_categorized_EN.txt	CABBAGE	Vegetables	7	0	12	[0, 0, 0]	n/a	0	0	0	n/a	n/a	0.0	0	0	0	catFR2	0	R1029W
3276.415	1.6	3278919	WORD	n/a	wordpools/wordpool_categorized_EN.txt	CORN	Vegetables	8	0	12	[0, 0, 0]	n/a	0	0	0	n/a	n/a	0.0	0	0	0	catFR2	0	R1029W
3279.033	1.6	3281537	WORD	n/a	wordpools/wordpool_categorized_EN.txt	THUNDER	Weather	9	1	12	[0, 0, 0]	n/a	0	0	0	n/a	n/a	0.0	0	0	0	catFR2	0	R1029W
3281.583	1.6	3284087	WORD	n/a	wordpools/wordpool_categorized_EN.txt	FOG	Weather	10	0	12	[0, 0, 0]	n/a	0	0	0	n/a	n/a	0.0	0	0	0	catFR2	0	R1029W
3284.15	1.6	3286654	WORD	n/a	wordpools/wordpool_categorized_EN.txt	LILY	Flowers	11	0	12	[0, 0, 0]	n/a	0	0	0	n/a	n/a	0.0	0	0	0	catFR2	0	R1029W
3286.685	1.6	3289188	WORD	n/a	wordpools/wordpool_categorized_EN.txt	SUNFLOWER	Flowers	12	0	12	[0, 0, 0]	n/a	0	0	0	n/a	n/a	0.0	0	0	0	catFR2	0	R1029W
3288.301	0.001	3290804	DISTRACT_START	n/a	n/a	n/a	n/a	-999	0	12	[0, 0, 0]	n/a	0	0	0	n/a	n/a	0.0	0	0	0	catFR2	0	R1029W
3288.302	0.016	3290805	START	n/a	n/a	n/a	n/a	-999	0	12	[-999, -999, -999]	n/a	0	0	0	n/a	n/a	0.0	0	0	0	catFR2	0	R1029W
3288.318	4.634	3290821	PROB	4.601	n/a	n/a	n/a	-999	0	12	[3, 7, 4]	14	0	0	0	n/a	n/a	0.0	0	0	0	catFR2	0	R1029W
3292.952	5.769	3295455	PROB	5.744	n/a	n/a	n/a	-999	0	12	[1, 3, 2]	6	0	0	0	n/a	n/a	0.0	0	0	0	catFR2	0	R1029W
3298.721	11.382	3301223	PROB	11.382	n/a	n/a	n/a	-999	0	12	[9, 9, 9]	27	0	0	0	n/a	n/a	0.0	0	0	0	catFR2	0	R1029W
3310.103	0.019	3312604	STOP	n/a	n/a	n/a	n/a	-999	0	12	[-999, -999, -999]	n/a	0	0	0	n/a	n/a	0.0	0	0	0	catFR2	0	R1029W
3310.122	1.167	3312623	DISTRACT_END	n/a	n/a	n/a	n/a	-999	0	12	[0, 0, 0]	n/a	0	0	0	n/a	n/a	0.0	0	0	0	catFR2	0	R1029W
3311.289	2.382	3313790	REC_START	n/a	n/a	n/a	n/a	-999	0	12	[0, 0, 0]	n/a	0	0	0	n/a	n/a	0.0	0	0	0	catFR2	0	R1029W
3313.671	4.45	3316172	REC_WORD_VV	2.382	n/a	<>	n/a	-999	0	12	[0, 0, 0]	n/a	0	0	0	n/a	n/a	0.0	0	0	0	catFR2	0	R1029W
3318.121	3.903	3320622	REC_WORD	6.832	n/a	DAISY	Flowers	6	1	12	[0, 0, 0]	n/a	0	0	0	n/a	n/a	0.0	0	0	0	catFR2	0	R1029W
3322.024	0.821	3324524	REC_WORD	10.735	n/a	LIGHTNING	Weather	2	1	12	[0, 0, 0]	n/a	0	0	0	n/a	n/a	0.0	0	0	0	catFR2	0	R1029W
3322.845	3.709	3325345	REC_WORD	11.556	n/a	THUNDER	Weather	9	1	12	[0, 0, 0]	n/a	0	0	0	n/a	n/a	0.0	0	0	0	catFR2	0	R1029W
3326.554	13.64	3329054	REC_WORD_VV	15.265	n/a	<>	n/a	-999	0	12	[0, 0, 0]	n/a	0	0	0	n/a	n/a	0.0	0	0	0	catFR2	0	R1029W
3340.194	1.11	3342693	REC_WORD_VV	28.905	n/a	<>	n/a	-999	0	12	[0, 0, 0]	n/a	0	0	0	n/a	n/a	0.0	0	0	0	catFR2	0	R1029W
3341.304	1.991	3343803	REC_END	n/a	n/a	n/a	n/a	-999	0	12	[0, 0, 0]	n/a	0	0	0	n/a	n/a	0.0	0	0	0	catFR2	0	R1029W
3343.295	0.0	3345794	TRIAL	n/a	n/a	n/a	n/a	-999	0	13	[0, 0, 0]	n/a	0	1	0	n/a	n/a	0.0	0	0	0	catFR2	0	R1029W
3343.295	10.0	3345794	COUNTDOWN_START	n/a	n/a	n/a	n/a	-999	0	13	[0, 0, 0]	n/a	0	1	0	n/a	n/a	0.0	0	0	0	catFR2	0	R1029W
3353.723	0.008	3356221	COUNTDOWN_END	n/a	n/a	n/a	n/a	-999	0	13	[0, 0, 0]	n/a	0	1	0	n/a	n/a	0.0	0	0	0	catFR2	0	R1029W
3353.731	1.6	3356229	ORIENT	n/a	n/a	n/a	n/a	-999	0	13	[0, 0, 0]	n/a	0	1	0	n/a	n/a	0.0	0	0	0	catFR2	0	R1029W
3357.682	1.6	3360180	WORD	n/a	wordpools/wordpool_categorized_EN.txt	BIRCH	Trees	1	0	13	[0, 0, 0]	n/a	0	1	0	n/a	n/a	0.0	0	0	0	catFR2	0	R1029W
3360.165	1.6	3362662	WORD	n/a	wordpools/wordpool_categorized_EN.txt	SPRUCE	Trees	2	0	13	[0, 0, 0]	n/a	0	1	0	n/a	n/a	0.0	0	0	0	catFR2	0	R1029W
3362.453	4.6	3364950	STIM_ON	n/a	n/a	n/a	n/a	-999	0	13	[0, 0, 0]	n/a	1	1	4600	GRID52	GRID60	3500.0	50	230	300	catFR2	0	R1029W
3362.666	1.6	3365163	WORD	n/a	wordpools/wordpool_categorized_EN.txt	TROMBONE	Instruments	3	0	13	[0, 0, 0]	n/a	1	1	4600	GRID52	GRID60	3500.0	50	230	300	catFR2	0	R1029W
3365.082	1.6	3367579	WORD	n/a	wordpools/wordpool_categorized_EN.txt	TUBA	Instruments	4	0	13	[0, 0, 0]	n/a	1	1	4600	GRID52	GRID60	3500.0	50	230	300	catFR2	0	R1029W
3367.499	1.6	3369996	WORD	n/a	wordpools/wordpool_categorized_EN.txt	ARM	BodyParts	5	0	13	[0, 0, 0]	n/a	0	1	0	n/a	n/a	0.0	0	0	0	catFR2	0	R1029W
3369.916	1.6	3372413	WORD	n/a	wordpools/wordpool_categorized_EN.txt	HEAD	BodyParts	6	0	13	[0, 0, 0]	n/a	0	1	0	n/a	n/a	0.0	0	0	0	catFR2	0	R1029W
3372.31	4.6	3374806	STIM_ON	n/a	n/a	n/a	n/a	-999	0	13	[0, 0, 0]	n/a	1	1	4600	GRID52	GRID60	3500.0	50	230	300	catFR2	0	R1029W
3372.517	1.6	3375013	WORD	n/a	wordpools/wordpool_categorized_EN.txt	CYPRESS	Trees	7	0	13	[0, 0, 0]	n/a	1	1	4600	GRID52	GRID60	3500.0	50	230	300	catFR2	0	R1029W
3374.984	1.6	3377480	WORD	n/a	wordpools/wordpool_categorized_EN.txt	WILLOW	Trees	8	0	13	[0, 0, 0]	n/a	1	1	4600	GRID52	GRID60	3500.0	50	230	300	catFR2	0	R1029W
3377.401	1.6	3379897	WORD	n/a	wordpools/wordpool_categorized_EN.txt	EAR	BodyParts	9	0	13	[0, 0, 0]	n/a	0	1	0	n/a	n/a	0.0	0	0	0	catFR2	0	R1029W
3379.985	1.6	3382481	WORD	n/a	wordpools/wordpool_categorized_EN.txt	FINGERS	BodyParts	10	0	13	[0, 0, 0]	n/a	0	1	0	n/a	n/a	0.0	0	0	0	catFR2	0	R1029W
3382.212	4.6	3384708	STIM_ON	n/a	n/a	n/a	n/a	-999	0	13	[0, 0, 0]	n/a	1	1	4600	GRID52	GRID60	3500.0	50	230	300	catFR2	0	R1029W
3382.419	1.6	3384915	WORD	n/a	wordpools/wordpool_categorized_EN.txt	GUITAR	Instruments	11	0	13	[0, 0, 0]	n/a	1	1	4600	GRID52	GRID60	3500.0	50	230	300	catFR2	0	R1029W
3384.903	1.6	3387398	WORD	n/a	wordpools/wordpool_categorized_EN.txt	BANJO	Instruments	12	0	13	[0, 0, 0]	n/a	1	1	4600	GRID52	GRID60	3500.0	50	230	300	catFR2	0	R1029W
3386.52	0.001	3389015	DISTRACT_START	n/a	n/a	n/a	n/a	-999	0	13	[0, 0, 0]	n/a	0	1	0	n/a	n/a	0.0	0	0	0	catFR2	0	R1029W
3386.521	0.015	3389016	START	n/a	n/a	n/a	n/a	-999	0	13	[-999, -999, -999]	n/a	0	1	0	n/a	n/a	0.0	0	0	0	catFR2	0	R1029W
3386.536	21.407	3389031	PROB	21.407	n/a	n/a	n/a	-999	0	13	[9, 7, 6]	22	0	1	0	n/a	n/a	0.0	0	0	0	catFR2	0	R1029W
3407.943	0.014	3410436	STOP	n/a	n/a	n/a	n/a	-999	0	13	[-999, -999, -999]	n/a	0	1	0	n/a	n/a	0.0	0	0	0	catFR2	0	R1029W
3407.957	1.101	3410450	DISTRACT_END	n/a	n/a	n/a	n/a	-999	0	13	[0, 0, 0]	n/a	0	1	0	n/a	n/a	0.0	0	0	0	catFR2	0	R1029W
3409.058	2.35	3411551	REC_START	n/a	n/a	n/a	n/a	-999	0	13	[0, 0, 0]	n/a	0	1	0	n/a	n/a	0.0	0	0	0	catFR2	0	R1029W
3411.408	2.083	3413901	REC_WORD_VV	2.35	n/a	<>	n/a	-999	0	13	[0, 0, 0]	n/a	0	1	0	n/a	n/a	0.0	0	0	0	catFR2	0	R1029W
3413.491	1.552	3415984	REC_WORD_VV	4.433	n/a	<>	n/a	-999	0	13	[0, 0, 0]	n/a	0	1	0	n/a	n/a	0.0	0	0	0	catFR2	0	R1029W
3415.043	1.004	3417536	REC_WORD_VV	5.985	n/a	<>	n/a	-999	0	13	[0, 0, 0]	n/a	0	1	0	n/a	n/a	0.0	0	0	0	catFR2	0	R1029W
3416.047	0.999	3418540	REC_WORD_VV	6.989	n/a	<>	n/a	-999	0	13	[0, 0, 0]	n/a	0	1	0	n/a	n/a	0.0	0	0	0	catFR2	0	R1029W
3417.046	22.023	3419539	REC_WORD_VV	7.988	n/a	<>	n/a	-999	0	13	[0, 0, 0]	n/a	0	1	0	n/a	n/a	0.0	0	0	0	catFR2	0	R1029W
3439.069	1.527	3441560	REC_END	n/a	n/a	n/a	n/a	-999	0	13	[0, 0, 0]	n/a	0	1	0	n/a	n/a	0.0	0	0	0	catFR2	0	R1029W
3440.596	10.0	3443087	COUNTDOWN_START	n/a	n/a	n/a	n/a	-999	0	14	[0, 0, 0]	n/a	0	1	0	n/a	n/a	0.0	0	0	0	catFR2	0	R1029W
3440.597	10.427	3443088	TRIAL	n/a	n/a	n/a	n/a	-999	0	14	[0, 0, 0]	n/a	0	1	0	n/a	n/a	0.0	0	0	0	catFR2	0	R1029W
3451.024	0.008	3453514	COUNTDOWN_END	n/a	n/a	n/a	n/a	-999	0	14	[0, 0, 0]	n/a	0	1	0	n/a	n/a	0.0	0	0	0	catFR2	0	R1029W
3451.032	1.6	3453522	ORIENT	n/a	n/a	n/a	n/a	-999	0	14	[0, 0, 0]	n/a	0	1	0	n/a	n/a	0.0	0	0	0	catFR2	0	R1029W
3454.482	1.6	3456972	WORD	n/a	wordpools/wordpool_categorized_EN.txt	PEACH	Fruit	1	0	14	[0, 0, 0]	n/a	0	1	0	n/a	n/a	0.0	0	0	0	catFR2	0	R1029W
3457.049	1.6	3459538	WORD	n/a	wordpools/wordpool_categorized_EN.txt	CHERRY	Fruit	2	0	14	[0, 0, 0]	n/a	0	1	0	n/a	n/a	0.0	0	0	0	catFR2	0	R1029W
3459.319	4.6	3461808	STIM_ON	n/a	n/a	n/a	n/a	-999	0	14	[0, 0, 0]	n/a	1	1	4600	GRID52	GRID60	3500.0	50	230	300	catFR2	0	R1029W
3459.533	1.6	3462022	WORD	n/a	wordpools/wordpool_categorized_EN.txt	COW	FarmAnimals	3	0	14	[0, 0, 0]	n/a	1	1	4600	GRID52	GRID60	3500.0	50	230	300	catFR2	0	R1029W
3462.117	1.6	3464606	WORD	n/a	wordpools/wordpool_categorized_EN.txt	LAMB	FarmAnimals	4	0	14	[0, 0, 0]	n/a	1	1	4600	GRID52	GRID60	3500.0	50	230	300	catFR2	0	R1029W
3464.518	1.6	3467007	WORD	n/a	wordpools/wordpool_categorized_EN.txt	BLENDER	Appliances	5	0	14	[0, 0, 0]	n/a	0	1	0	n/a	n/a	0.0	0	0	0	catFR2	0	R1029W
3467.135	1.6	3469624	WORD	n/a	wordpools/wordpool_categorized_EN.txt	MIXER	Appliances	6	0	14	[0, 0, 0]	n/a	0	1	0	n/a	n/a	0.0	0	0	0	catFR2	0	R1029W
3469.445	4.6	3471933	STIM_ON	n/a	n/a	n/a	n/a	-999	0	14	[0, 0, 0]	n/a	1	1	4600	GRID52	GRID60	3500.0	50	230	300	catFR2	0	R1029W
3469.653	1.6	3472141	WORD	n/a	wordpools/wordpool_categorized_EN.txt	ROOSTER	FarmAnimals	7	0	14	[0, 0, 0]	n/a	1	1	4600	GRID52	GRID60	3500.0	50	230	300	catFR2	0	R1029W
3472.052	1.6	3474540	WORD	n/a	wordpools/wordpool_categorized_EN.txt	BULL	FarmAnimals	8	0	14	[0, 0, 0]	n/a	1	1	4600	GRID52	GRID60	3500.0	50	230	300	catFR2	0	R1029W
3474.503	1.6	3476991	WORD	n/a	wordpools/wordpool_categorized_EN.txt	GRAPE	Fruit	9	1	14	[0, 0, 0]	n/a	0	1	0	n/a	n/a	0.0	0	0	0	catFR2	0	R1029W
3476.887	1.6	3479375	WORD	n/a	wordpools/wordpool_categorized_EN.txt	PEAR	Fruit	10	0	14	[0, 0, 0]	n/a	0	1	0	n/a	n/a	0.0	0	0	0	catFR2	0	R1029W
3479.245	4.6	3481733	STIM_ON	n/a	n/a	n/a	n/a	-999	0	14	[0, 0, 0]	n/a	1	1	4600	GRID52	GRID60	3500.0	50	230	300	catFR2	0	R1029W
3479.454	1.6	3481942	WORD	n/a	wordpools/wordpool_categorized_EN.txt	VACUUM	Appliances	11	0	14	[0, 0, 0]	n/a	1	1	4600	GRID52	GRID60	3500.0	50	230	300	catFR2	0	R1029W
3481.954	1.6	3484441	WORD	n/a	wordpools/wordpool_categorized_EN.txt	REFRIGERATOR	Appliances	12	0	14	[0, 0, 0]	n/a	1	1	4600	GRID52	GRID60	3500.0	50	230	300	catFR2	0	R1029W
3483.571	0.001	3486058	DISTRACT_START	n/a	n/a	n/a	n/a	-999	0	14	[0, 0, 0]	n/a	0	1	0	n/a	n/a	0.0	0	0	0	catFR2	0	R1029W
3483.572	0.016	3486059	START	n/a	n/a	n/a	n/a	-999	0	14	[-999, -999, -999]	n/a	0	1	0	n/a	n/a	0.0	0	0	0	catFR2	0	R1029W
3483.588	5.968	3486075	PROB	5.939	n/a	n/a	n/a	-999	0	14	[4, 7, 1]	12	0	1	0	n/a	n/a	0.0	0	0	0	catFR2	0	R1029W
3489.556	8.535	3492043	PROB	8.507	n/a	n/a	n/a	-999	0	14	[6, 8, 7]	21	0	1	0	n/a	n/a	0.0	0	0	0	catFR2	0	R1029W
3498.091	7.669	3500577	PROB	7.669	n/a	n/a	n/a	-999	0	14	[4, 7, 8]	19	0	1	0	n/a	n/a	0.0	0	0	0	catFR2	0	R1029W
3505.76	0.016	3508246	STOP	n/a	n/a	n/a	n/a	-999	0	14	[-999, -999, -999]	n/a	0	1	0	n/a	n/a	0.0	0	0	0	catFR2	0	R1029W
3505.776	1.15	3508262	DISTRACT_END	n/a	n/a	n/a	n/a	-999	0	14	[0, 0, 0]	n/a	0	1	0	n/a	n/a	0.0	0	0	0	catFR2	0	R1029W
3506.926	8.644	3509411	REC_START	n/a	n/a	n/a	n/a	-999	0	14	[0, 0, 0]	n/a	0	1	0	n/a	n/a	0.0	0	0	0	catFR2	0	R1029W
3515.57	2.169	3518055	REC_WORD_VV	8.644	n/a	<>	n/a	-999	0	14	[0, 0, 0]	n/a	0	1	0	n/a	n/a	0.0	0	0	0	catFR2	0	R1029W
3517.739	0.999	3520224	REC_WORD_VV	10.813	n/a	<>	n/a	-999	0	14	[0, 0, 0]	n/a	0	1	0	n/a	n/a	0.0	0	0	0	catFR2	0	R1029W
3518.738	1.0	3521222	REC_WORD_VV	11.812	n/a	<>	n/a	-999	0	14	[0, 0, 0]	n/a	0	1	0	n/a	n/a	0.0	0	0	0	catFR2	0	R1029W
3519.738	0.819	3522222	REC_WORD_VV	12.812	n/a	<>	n/a	-999	0	14	[0, 0, 0]	n/a	0	1	0	n/a	n/a	0.0	0	0	0	catFR2	0	R1029W
3520.557	1.341	3523041	REC_WORD	13.631	n/a	GRAPE	Fruit	9	1	14	[0, 0, 0]	n/a	0	1	0	n/a	n/a	0.0	0	0	0	catFR2	0	R1029W
3521.898	0.69	3524382	REC_WORD	14.972	n/a	STRAWBERRY	n/a	-999	0	14	[0, 0, 0]	n/a	0	1	0	n/a	n/a	0.0	0	0	0	catFR2	0	R1029W
3522.588	2.437	3525072	REC_WORD	15.662	n/a	BANANA	n/a	-999	0	14	[0, 0, 0]	n/a	0	1	0	n/a	n/a	0.0	0	0	0	catFR2	0	R1029W
3525.025	1.458	3527509	REC_WORD_VV	18.099	n/a	<>	n/a	-999	0	14	[0, 0, 0]	n/a	0	1	0	n/a	n/a	0.0	0	0	0	catFR2	0	R1029W
3526.483	5.902	3528967	REC_WORD	19.557	n/a	WATERMELON	n/a	-999	0	14	[0, 0, 0]	n/a	0	1	0	n/a	n/a	0.0	0	0	0	catFR2	0	R1029W
3532.385	4.553	3534868	REC_WORD_VV	25.459	n/a	<>	n/a	-999	0	14	[0, 0, 0]	n/a	0	1	0	n/a	n/a	0.0	0	0	0	catFR2	0	R1029W
3536.938	4.594	3539421	REC_END	n/a	n/a	n/a	n/a	-999	0	14	[0, 0, 0]	n/a	0	1	0	n/a	n/a	0.0	0	0	0	catFR2	0	R1029W
3541.532	0.0	3544015	TRIAL	n/a	n/a	n/a	n/a	-999	0	15	[0, 0, 0]	n/a	0	0	0	n/a	n/a	0.0	0	0	0	catFR2	0	R1029W
3541.532	10.0	3544015	COUNTDOWN_START	n/a	n/a	n/a	n/a	-999	0	15	[0, 0, 0]	n/a	0	0	0	n/a	n/a	0.0	0	0	0	catFR2	0	R1029W
3551.96	0.007	3554442	COUNTDOWN_END	n/a	n/a	n/a	n/a	-999	0	15	[0, 0, 0]	n/a	0	0	0	n/a	n/a	0.0	0	0	0	catFR2	0	R1029W
3551.967	1.6	3554449	ORIENT	n/a	n/a	n/a	n/a	-999	0	15	[0, 0, 0]	n/a	0	0	0	n/a	n/a	0.0	0	0	0	catFR2	0	R1029W
3555.836	1.6	3558317	WORD	n/a	wordpools/wordpool_categorized_EN.txt	PENCIL	OfficeSupplies	1	1	15	[0, 0, 0]	n/a	0	0	0	n/a	n/a	0.0	0	0	0	catFR2	0	R1029W
3558.269	1.6	3560750	WORD	n/a	wordpools/wordpool_categorized_EN.txt	BINDER	OfficeSupplies	2	0	15	[0, 0, 0]	n/a	0	0	0	n/a	n/a	0.0	0	0	0	catFR2	0	R1029W
3560.753	1.6	3563234	WORD	n/a	wordpools/wordpool_categorized_EN.txt	DUCK	Birds	3	0	15	[0, 0, 0]	n/a	0	0	0	n/a	n/a	0.0	0	0	0	catFR2	0	R1029W
3563.369	1.6	3565850	WORD	n/a	wordpools/wordpool_categorized_EN.txt	DOVE	Birds	4	0	15	[0, 0, 0]	n/a	0	0	0	n/a	n/a	0.0	0	0	0	catFR2	0	R1029W
3565.92	1.6	3568401	WORD	n/a	wordpools/wordpool_categorized_EN.txt	LETTUCE	Vegetables	5	0	15	[0, 0, 0]	n/a	0	0	0	n/a	n/a	0.0	0	0	0	catFR2	0	R1029W
3568.437	1.6	3570917	WORD	n/a	wordpools/wordpool_categorized_EN.txt	PEAS	Vegetables	6	1	15	[0, 0, 0]	n/a	0	0	0	n/a	n/a	0.0	0	0	0	catFR2	0	R1029W
3570.889	1.6	3573369	WORD	n/a	wordpools/wordpool_categorized_EN.txt	RULER	OfficeSupplies	7	0	15	[0, 0, 0]	n/a	0	0	0	n/a	n/a	0.0	0	0	0	catFR2	0	R1029W
3573.321	1.6	3575801	WORD	n/a	wordpools/wordpool_categorized_EN.txt	MARKER	OfficeSupplies	8	0	15	[0, 0, 0]	n/a	0	0	0	n/a	n/a	0.0	0	0	0	catFR2	0	R1029W
3575.905	1.6	3578385	WORD	n/a	wordpools/wordpool_categorized_EN.txt	CARROT	Vegetables	9	0	15	[0, 0, 0]	n/a	0	0	0	n/a	n/a	0.0	0	0	0	catFR2	0	R1029W
3578.456	1.6	3580936	WORD	n/a	wordpools/wordpool_categorized_EN.txt	ONION	Vegetables	10	0	15	[0, 0, 0]	n/a	0	0	0	n/a	n/a	0.0	0	0	0	catFR2	0	R1029W
3580.939	1.6	3583418	WORD	n/a	wordpools/wordpool_categorized_EN.txt	PIGEON	Birds	11	0	15	[0, 0, 0]	n/a	0	0	0	n/a	n/a	0.0	0	0	0	catFR2	0	R1029W
3583.373	1.6	3585852	WORD	n/a	wordpools/wordpool_categorized_EN.txt	CARDINAL	Birds	12	0	15	[0, 0, 0]	n/a	0	0	0	n/a	n/a	0.0	0	0	0	catFR2	0	R1029W
3584.99	0.001	3587469	DISTRACT_START	n/a	n/a	n/a	n/a	-999	0	15	[0, 0, 0]	n/a	0	0	0	n/a	n/a	0.0	0	0	0	catFR2	0	R1029W
3584.991	0.016	3587470	START	n/a	n/a	n/a	n/a	-999	0	15	[-999, -999, -999]	n/a	0	0	0	n/a	n/a	0.0	0	0	0	catFR2	0	R1029W
3585.007	4.868	3587486	PROB	4.833	n/a	n/a	n/a	-999	0	15	[2, 2, 6]	10	0	0	0	n/a	n/a	0.0	0	0	0	catFR2	0	R1029W
3589.875	7.167	3592354	PROB	7.132	n/a	n/a	n/a	-999	0	15	[8, 3, 6]	17	0	0	0	n/a	n/a	0.0	0	0	0	catFR2	0	R1029W
3597.042	5.952	3599520	PROB	5.917	n/a	n/a	n/a	-999	0	15	[1, 3, 6]	10	0	0	0	n/a	n/a	0.0	0	0	0	catFR2	0	R1029W
3602.994	18.189	3605472	PROB	18.189	n/a	n/a	n/a	-999	0	15	[5, 1, 4]	10	0	0	0	n/a	n/a	0.0	0	0	0	catFR2	0	R1029W
3621.183	0.014	3623659	STOP	n/a	n/a	n/a	n/a	-999	0	15	[-999, -999, -999]	n/a	0	0	0	n/a	n/a	0.0	0	0	0	catFR2	0	R1029W
3621.197	1.068	3623673	DISTRACT_END	n/a	n/a	n/a	n/a	-999	0	15	[0, 0, 0]	n/a	0	0	0	n/a	n/a	0.0	0	0	0	catFR2	0	R1029W
3622.265	12.669	3624741	REC_START	n/a	n/a	n/a	n/a	-999	0	15	[0, 0, 0]	n/a	0	0	0	n/a	n/a	0.0	0	0	0	catFR2	0	R1029W
3634.934	13.518	3637409	REC_WORD	12.669	n/a	PEAS	Vegetables	6	1	15	[0, 0, 0]	n/a	0	0	0	n/a	n/a	0.0	0	0	0	catFR2	0	R1029W
3648.452	0.837	3650926	REC_WORD	26.187	n/a	PENCIL	OfficeSupplies	1	1	15	[0, 0, 0]	n/a	0	0	0	n/a	n/a	0.0	0	0	0	catFR2	0	R1029W
3649.289	1.994	3651763	REC_WORD	27.024	n/a	PAD	n/a	-999	0	15	[0, 0, 0]	n/a	0	0	0	n/a	n/a	0.0	0	0	0	catFR2	0	R1029W
3651.283	0.993	3653757	REC_WORD	29.018	n/a	NOTEBOOK	n/a	-999	0	15	[0, 0, 0]	n/a	0	0	0	n/a	n/a	0.0	0	0	0	catFR2	0	R1029W
3652.276	1.977	3654750	REC_END	n/a	n/a	n/a	n/a	-999	0	15	[0, 0, 0]	n/a	0	0	0	n/a	n/a	0.0	0	0	0	catFR2	0	R1029W
3654.253	10.0	3656726	COUNTDOWN_START	n/a	n/a	n/a	n/a	-999	0	16	[0, 0, 0]	n/a	0	1	0	n/a	n/a	0.0	0	0	0	catFR2	0	R1029W
3654.254	10.427	3656727	TRIAL	n/a	n/a	n/a	n/a	-999	0	16	[0, 0, 0]	n/a	0	1	0	n/a	n/a	0.0	0	0	0	catFR2	0	R1029W
3664.681	0.009	3667154	COUNTDOWN_END	n/a	n/a	n/a	n/a	-999	0	16	[0, 0, 0]	n/a	0	1	0	n/a	n/a	0.0	0	0	0	catFR2	0	R1029W
3664.69	1.6	3667163	ORIENT	n/a	n/a	n/a	n/a	-999	0	16	[0, 0, 0]	n/a	0	1	0	n/a	n/a	0.0	0	0	0	catFR2	0	R1029W
3668.06	4.6	3670532	STIM_ON	n/a	n/a	n/a	n/a	-999	0	16	[0, 0, 0]	n/a	1	1	4600	GRID52	GRID60	3500.0	50	230	300	catFR2	0	R1029W
3668.273	1.6	3670745	WORD	n/a	wordpools/wordpool_categorized_EN.txt	CAKE	Desserts	1	0	16	[0, 0, 0]	n/a	1	1	4600	GRID52	GRID60	3500.0	50	230	300	catFR2	0	R1029W
3670.841	1.6	3673313	WORD	n/a	wordpools/wordpool_categorized_EN.txt	CUPCAKE	Desserts	2	1	16	[0, 0, 0]	n/a	1	1	4600	GRID52	GRID60	3500.0	50	230	300	catFR2	0	R1029W
3673.374	1.6	3675846	WORD	n/a	wordpools/wordpool_categorized_EN.txt	STEREO	Electronics	3	0	16	[0, 0, 0]	n/a	0	1	0	n/a	n/a	0.0	0	0	0	catFR2	0	R1029W
3675.825	1.6	3678297	WORD	n/a	wordpools/wordpool_categorized_EN.txt	TABLET	Electronics	4	0	16	[0, 0, 0]	n/a	0	1	0	n/a	n/a	0.0	0	0	0	catFR2	0	R1029W
3678.157	4.6	3680629	STIM_ON	n/a	n/a	n/a	n/a	-999	0	16	[0, 0, 0]	n/a	1	1	4600	GRID52	GRID60	3500.0	50	230	300	catFR2	0	R1029W
3678.375	1.6	3680846	WORD	n/a	wordpools/wordpool_categorized_EN.txt	ERASER	OfficeSupplies	5	0	16	[0, 0, 0]	n/a	1	1	4600	GRID52	GRID60	3500.0	50	230	300	catFR2	0	R1029W
3680.975	1.6	3683446	WORD	n/a	wordpools/wordpool_categorized_EN.txt	STAPLER	OfficeSupplies	6	0	16	[0, 0, 0]	n/a	1	1	4600	GRID52	GRID60	3500.0	50	230	300	catFR2	0	R1029W
3683.376	1.6	3685847	WORD	n/a	wordpools/wordpool_categorized_EN.txt	MOUSSE	Desserts	7	0	16	[0, 0, 0]	n/a	0	1	0	n/a	n/a	0.0	0	0	0	catFR2	0	R1029W
3685.76	1.6	3688231	WORD	n/a	wordpools/wordpool_categorized_EN.txt	JELLO	Desserts	8	0	16	[0, 0, 0]	n/a	0	1	0	n/a	n/a	0.0	0	0	0	catFR2	0	R1029W
3687.983	4.6	3690454	STIM_ON	n/a	n/a	n/a	n/a	-999	0	16	[0, 0, 0]	n/a	1	1	4600	GRID52	GRID60	3500.0	50	230	300	catFR2	0	R1029W
3688.193	1.6	3690664	WORD	n/a	wordpools/wordpool_categorized_EN.txt	PAPER	OfficeSupplies	9	0	16	[0, 0, 0]	n/a	1	1	4600	GRID52	GRID60	3500.0	50	230	300	catFR2	0	R1029W
3690.795	1.6	3693265	WORD	n/a	wordpools/wordpool_categorized_EN.txt	FOLDER	OfficeSupplies	10	0	16	[0, 0, 0]	n/a	1	1	4600	GRID52	GRID60	3500.0	50	230	300	catFR2	0	R1029W
3693.294	1.6	3695764	WORD	n/a	wordpools/wordpool_categorized_EN.txt	SPEAKER	Electronics	11	0	16	[0, 0, 0]	n/a	0	1	0	n/a	n/a	0.0	0	0	0	catFR2	0	R1029W
3695.695	1.6	3698165	WORD	n/a	wordpools/wordpool_categorized_EN.txt	SCANNER	Electronics	12	0	16	[0, 0, 0]	n/a	0	1	0	n/a	n/a	0.0	0	0	0	catFR2	0	R1029W
3697.311	0.002	3699781	DISTRACT_START	n/a	n/a	n/a	n/a	-999	0	16	[0, 0, 0]	n/a	0	1	0	n/a	n/a	0.0	0	0	0	catFR2	0	R1029W
3697.313	0.015	3699783	START	n/a	n/a	n/a	n/a	-999	0	16	[-999, -999, -999]	n/a	0	1	0	n/a	n/a	0.0	0	0	0	catFR2	0	R1029W
3697.328	3.951	3699798	PROB	3.927	n/a	n/a	n/a	-999	0	16	[5, 4, 8]	17	0	1	0	n/a	n/a	0.0	0	0	0	catFR2	0	R1029W
3701.279	5.017	3703749	PROB	4.992	n/a	n/a	n/a	-999	0	16	[1, 4, 6]	11	0	1	0	n/a	n/a	0.0	0	0	0	catFR2	0	R1029W
3706.296	3.018	3708765	PROB	2.983	n/a	n/a	n/a	-999	0	16	[1, 3, 1]	5	0	1	0	n/a	n/a	0.0	0	0	0	catFR2	0	R1029W
3709.314	12.109	3711783	PROB	12.109	n/a	n/a	n/a	-999	0	16	[5, 3, 4]	12	0	1	0	n/a	n/a	0.0	0	0	0	catFR2	0	R1029W
3721.423	0.01	3723891	STOP	n/a	n/a	n/a	n/a	-999	0	16	[-999, -999, -999]	n/a	0	1	0	n/a	n/a	0.0	0	0	0	catFR2	0	R1029W
3721.433	1.201	3723901	DISTRACT_END	n/a	n/a	n/a	n/a	-999	0	16	[0, 0, 0]	n/a	0	1	0	n/a	n/a	0.0	0	0	0	catFR2	0	R1029W
3722.634	1.485	3725102	REC_START	n/a	n/a	n/a	n/a	-999	0	16	[0, 0, 0]	n/a	0	1	0	n/a	n/a	0.0	0	0	0	catFR2	0	R1029W
3724.119	2.459	3726587	REC_WORD	1.485	n/a	CUPCAKE	Desserts	2	1	16	[0, 0, 0]	n/a	0	1	0	n/a	n/a	0.0	0	0	0	catFR2	0	R1029W
3726.578	1.288	3729046	REC_WORD_VV	3.944	n/a	<>	n/a	-999	0	16	[0, 0, 0]	n/a	0	1	0	n/a	n/a	0.0	0	0	0	catFR2	0	R1029W
3727.866	3.608	3730333	REC_WORD_VV	5.232	n/a	<>	n/a	-999	0	16	[0, 0, 0]	n/a	0	1	0	n/a	n/a	0.0	0	0	0	catFR2	0	R1029W
3731.474	21.172	3733941	REC_WORD	8.84	n/a	CEILING	n/a	-999	0	16	[0, 0, 0]	n/a	0	1	0	n/a	n/a	0.0	0	0	0	catFR2	0	R1029W
3752.646	11.595	3755111	REC_END	n/a	n/a	n/a	n/a	-999	0	16	[0, 0, 0]	n/a	0	1	0	n/a	n/a	0.0	0	0	0	catFR2	0	R1029W
3764.241	0.0	3766706	TRIAL	n/a	n/a	n/a	n/a	-999	0	17	[0, 0, 0]	n/a	0	0	0	n/a	n/a	0.0	0	0	0	catFR2	0	R1029W
3764.241	10.0	3766706	COUNTDOWN_START	n/a	n/a	n/a	n/a	-999	0	17	[0, 0, 0]	n/a	0	0	0	n/a	n/a	0.0	0	0	0	catFR2	0	R1029W
3774.669	0.008	3777133	COUNTDOWN_END	n/a	n/a	n/a	n/a	-999	0	17	[0, 0, 0]	n/a	0	0	0	n/a	n/a	0.0	0	0	0	catFR2	0	R1029W
3774.677	1.6	3777141	ORIENT	n/a	n/a	n/a	n/a	-999	0	17	[0, 0, 0]	n/a	0	0	0	n/a	n/a	0.0	0	0	0	catFR2	0	R1029W
3778.21	1.6	3780673	WORD	n/a	wordpools/wordpool_categorized_EN.txt	WRENCH	Tools	1	0	17	[0, 0, 0]	n/a	0	0	0	n/a	n/a	0.0	0	0	0	catFR2	0	R1029W
3780.795	1.6	3783258	WORD	n/a	wordpools/wordpool_categorized_EN.txt	SAW	Tools	2	1	17	[0, 0, 0]	n/a	0	0	0	n/a	n/a	0.0	0	0	0	catFR2	0	R1029W
3783.261	1.6	3785724	WORD	n/a	wordpools/wordpool_categorized_EN.txt	SHOES	Clothing	3	0	17	[0, 0, 0]	n/a	0	0	0	n/a	n/a	0.0	0	0	0	catFR2	0	R1029W
3785.796	1.6	3788259	WORD	n/a	wordpools/wordpool_categorized_EN.txt	SHORTS	Clothing	4	0	17	[0, 0, 0]	n/a	0	0	0	n/a	n/a	0.0	0	0	0	catFR2	0	R1029W
3788.379	1.6	3790842	WORD	n/a	wordpools/wordpool_categorized_EN.txt	BANANA	Fruit	5	0	17	[0, 0, 0]	n/a	0	0	0	n/a	n/a	0.0	0	0	0	catFR2	0	R1029W
3790.979	1.6	3793441	WORD	n/a	wordpools/wordpool_categorized_EN.txt	BLUEBERRY	Fruit	6	0	17	[0, 0, 0]	n/a	0	0	0	n/a	n/a	0.0	0	0	0	catFR2	0	R1029W
3793.529	1.6	3795991	WORD	n/a	wordpools/wordpool_categorized_EN.txt	CROWBAR	Tools	7	0	17	[0, 0, 0]	n/a	0	0	0	n/a	n/a	0.0	0	0	0	catFR2	0	R1029W
3795.963	1.6	3798425	WORD	n/a	wordpools/wordpool_categorized_EN.txt	LEVEL	Tools	8	1	17	[0, 0, 0]	n/a	0	0	0	n/a	n/a	0.0	0	0	0	catFR2	0	R1029W
3798.414	1.6	3800876	WORD	n/a	wordpools/wordpool_categorized_EN.txt	APPLE	Fruit	9	1	17	[0, 0, 0]	n/a	0	0	0	n/a	n/a	0.0	0	0	0	catFR2	0	R1029W
3800.931	1.6	3803393	WORD	n/a	wordpools/wordpool_categorized_EN.txt	LIME	Fruit	10	1	17	[0, 0, 0]	n/a	0	0	0	n/a	n/a	0.0	0	0	0	catFR2	0	R1029W
3803.431	1.6	3805892	WORD	n/a	wordpools/wordpool_categorized_EN.txt	PANTS	Clothing	11	0	17	[0, 0, 0]	n/a	0	0	0	n/a	n/a	0.0	0	0	0	catFR2	0	R1029W
3806.049	1.6	3808510	WORD	n/a	wordpools/wordpool_categorized_EN.txt	JEANS	Clothing	12	0	17	[0, 0, 0]	n/a	0	0	0	n/a	n/a	0.0	0	0	0	catFR2	0	R1029W
3807.667	0.001	3810128	DISTRACT_START	n/a	n/a	n/a	n/a	-999	0	17	[0, 0, 0]	n/a	0	0	0	n/a	n/a	0.0	0	0	0	catFR2	0	R1029W
3807.668	0.015	3810129	START	n/a	n/a	n/a	n/a	-999	0	17	[-999, -999, -999]	n/a	0	0	0	n/a	n/a	0.0	0	0	0	catFR2	0	R1029W
3807.683	8.451	3810144	PROB	8.428	n/a	n/a	n/a	-999	0	17	[8, 6, 1]	15	0	0	0	n/a	n/a	0.0	0	0	0	catFR2	0	R1029W
3816.134	3.618	3818594	PROB	3.594	n/a	n/a	n/a	-999	0	17	[2, 2, 6]	10	0	0	0	n/a	n/a	0.0	0	0	0	catFR2	0	R1029W
3819.752	16.183	3822212	PROB	16.183	n/a	n/a	n/a	-999	0	17	[9, 9, 6]	22	0	0	0	n/a	n/a	0.0	0	0	0	catFR2	0	R1029W
3835.935	0.019	3838394	STOP	n/a	n/a	n/a	n/a	-999	0	17	[-999, -999, -999]	n/a	0	0	0	n/a	n/a	0.0	0	0	0	catFR2	0	R1029W
3835.954	1.051	3838413	DISTRACT_END	n/a	n/a	n/a	n/a	-999	0	17	[0, 0, 0]	n/a	0	0	0	n/a	n/a	0.0	0	0	0	catFR2	0	R1029W
3837.005	3.079	3839464	REC_START	n/a	n/a	n/a	n/a	-999	0	17	[0, 0, 0]	n/a	0	0	0	n/a	n/a	0.0	0	0	0	catFR2	0	R1029W
3840.084	2.309	3842542	REC_WORD_VV	3.079	n/a	<>	n/a	-999	0	17	[0, 0, 0]	n/a	0	0	0	n/a	n/a	0.0	0	0	0	catFR2	0	R1029W
3842.393	1.979	3844851	REC_WORD	5.388	n/a	APPLE	Fruit	9	1	17	[0, 0, 0]	n/a	0	0	0	n/a	n/a	0.0	0	0	0	catFR2	0	R1029W
3844.372	2.865	3846830	REC_WORD	7.367	n/a	LIME	Fruit	10	1	17	[0, 0, 0]	n/a	0	0	0	n/a	n/a	0.0	0	0	0	catFR2	0	R1029W
3847.237	3.726	3849695	REC_WORD_VV	10.232	n/a	<>	n/a	-999	0	17	[0, 0, 0]	n/a	0	0	0	n/a	n/a	0.0	0	0	0	catFR2	0	R1029W
3850.963	2.507	3853420	REC_WORD	13.958	n/a	LEVEL	Tools	8	1	17	[0, 0, 0]	n/a	0	0	0	n/a	n/a	0.0	0	0	0	catFR2	0	R1029W
3853.47	3.593	3855927	REC_WORD	16.465	n/a	SAW	Tools	2	1	17	[0, 0, 0]	n/a	0	0	0	n/a	n/a	0.0	0	0	0	catFR2	0	R1029W
3857.063	2.193	3859520	REC_WORD_VV	20.058	n/a	<>	n/a	-999	0	17	[0, 0, 0]	n/a	0	0	0	n/a	n/a	0.0	0	0	0	catFR2	0	R1029W
3859.256	7.76	3861713	REC_WORD	22.251	n/a	RULER	n/a	-999	0	17	[0, 0, 0]	n/a	0	0	0	n/a	n/a	0.0	0	0	0	catFR2	0	R1029W
3867.016	2.829	3869472	REC_END	n/a	n/a	n/a	n/a	-999	0	17	[0, 0, 0]	n/a	0	0	0	n/a	n/a	0.0	0	0	0	catFR2	0	R1029W
3869.845	0.0	3872301	TRIAL	n/a	n/a	n/a	n/a	-999	0	18	[0, 0, 0]	n/a	0	1	0	n/a	n/a	0.0	0	0	0	catFR2	0	R1029W
3869.845	10.0	3872301	COUNTDOWN_START	n/a	n/a	n/a	n/a	-999	0	18	[0, 0, 0]	n/a	0	1	0	n/a	n/a	0.0	0	0	0	catFR2	0	R1029W
3880.273	0.006	3882728	COUNTDOWN_END	n/a	n/a	n/a	n/a	-999	0	18	[0, 0, 0]	n/a	0	1	0	n/a	n/a	0.0	0	0	0	catFR2	0	R1029W
3880.279	1.6	3882734	ORIENT	n/a	n/a	n/a	n/a	-999	0	18	[0, 0, 0]	n/a	0	1	0	n/a	n/a	0.0	0	0	0	catFR2	0	R1029W
3884.013	1.6	3886468	WORD	n/a	wordpools/wordpool_categorized_EN.txt	BEETLE	Insects	1	0	18	[0, 0, 0]	n/a	0	1	0	n/a	n/a	0.0	0	0	0	catFR2	0	R1029W
3886.597	1.6	3889052	WORD	n/a	wordpools/wordpool_categorized_EN.txt	CRICKET	Insects	2	0	18	[0, 0, 0]	n/a	0	1	0	n/a	n/a	0.0	0	0	0	catFR2	0	R1029W
3888.78	4.6	3891234	STIM_ON	n/a	n/a	n/a	n/a	-999	0	18	[0, 0, 0]	n/a	1	1	4600	GRID52	GRID60	3500.0	50	230	300	catFR2	0	R1029W
3888.998	1.6	3891452	WORD	n/a	wordpools/wordpool_categorized_EN.txt	STOVE	Appliances	3	0	18	[0, 0, 0]	n/a	1	1	4600	GRID52	GRID60	3500.0	50	230	300	catFR2	0	R1029W
3891.598	1.6	3894052	WORD	n/a	wordpools/wordpool_categorized_EN.txt	IRON	Appliances	4	1	18	[0, 0, 0]	n/a	1	1	4600	GRID52	GRID60	3500.0	50	230	300	catFR2	0	R1029W
3894.132	1.6	3896586	WORD	n/a	wordpools/wordpool_categorized_EN.txt	BASEBALL	Toys	5	0	18	[0, 0, 0]	n/a	0	1	0	n/a	n/a	0.0	0	0	0	catFR2	0	R1029W
3896.667	1.6	3899121	WORD	n/a	wordpools/wordpool_categorized_EN.txt	BARBIE	Toys	6	0	18	[0, 0, 0]	n/a	0	1	0	n/a	n/a	0.0	0	0	0	catFR2	0	R1029W
3899.054	4.6	3901508	STIM_ON	n/a	n/a	n/a	n/a	-999	0	18	[0, 0, 0]	n/a	1	1	4600	GRID52	GRID60	3500.0	50	230	300	catFR2	0	R1029W
3899.266	1.6	3901720	WORD	n/a	wordpools/wordpool_categorized_EN.txt	DRYER	Appliances	7	0	18	[0, 0, 0]	n/a	1	1	4600	GRID52	GRID60	3500.0	50	230	300	catFR2	0	R1029W
3901.868	1.6	3904321	WORD	n/a	wordpools/wordpool_categorized_EN.txt	TOASTER	Appliances	8	0	18	[0, 0, 0]	n/a	1	1	4600	GRID52	GRID60	3500.0	50	230	300	catFR2	0	R1029W
3904.284	1.6	3906737	WORD	n/a	wordpools/wordpool_categorized_EN.txt	LADYBUG	Insects	9	0	18	[0, 0, 0]	n/a	0	1	0	n/a	n/a	0.0	0	0	0	catFR2	0	R1029W
3906.802	1.6	3909255	WORD	n/a	wordpools/wordpool_categorized_EN.txt	GNAT	Insects	10	0	18	[0, 0, 0]	n/a	0	1	0	n/a	n/a	0.0	0	0	0	catFR2	0	R1029W
3908.974	4.6	3911427	STIM_ON	n/a	n/a	n/a	n/a	-999	0	18	[0, 0, 0]	n/a	1	1	4600	GRID52	GRID60	3500.0	50	230	300	catFR2	0	R1029W
3909.185	1.6	3911638	WORD	n/a	wordpools/wordpool_categorized_EN.txt	FRISBEE	Toys	11	0	18	[0, 0, 0]	n/a	1	1	4600	GRID52	GRID60	3500.0	50	230	300	catFR2	0	R1029W
3911.72	1.6	3914173	WORD	n/a	wordpools/wordpool_categorized_EN.txt	SLINKY	Toys	12	0	18	[0, 0, 0]	n/a	1	1	4600	GRID52	GRID60	3500.0	50	230	300	catFR2	0	R1029W
3913.336	0.001	3915788	DISTRACT_START	n/a	n/a	n/a	n/a	-999	0	18	[0, 0, 0]	n/a	0	1	0	n/a	n/a	0.0	0	0	0	catFR2	0	R1029W
3913.337	0.015	3915789	START	n/a	n/a	n/a	n/a	-999	0	18	[-999, -999, -999]	n/a	0	1	0	n/a	n/a	0.0	0	0	0	catFR2	0	R1029W
3913.352	13.769	3915804	PROB	13.743	n/a	n/a	n/a	-999	0	18	[8, 9, 8]	24	0	1	0	n/a	n/a	0.0	0	0	0	catFR2	0	R1029W
3927.121	21.494	3929572	PROB	21.494	n/a	n/a	n/a	-999	0	18	[8, 6, 6]	20	0	1	0	n/a	n/a	0.0	0	0	0	catFR2	0	R1029W
3948.615	0.012	3951065	STOP	n/a	n/a	n/a	n/a	-999	0	18	[-999, -999, -999]	n/a	0	1	0	n/a	n/a	0.0	0	0	0	catFR2	0	R1029W
3948.627	1.151	3951077	DISTRACT_END	n/a	n/a	n/a	n/a	-999	0	18	[0, 0, 0]	n/a	0	1	0	n/a	n/a	0.0	0	0	0	catFR2	0	R1029W
3949.778	3.109	3952227	REC_START	n/a	n/a	n/a	n/a	-999	0	18	[0, 0, 0]	n/a	0	1	0	n/a	n/a	0.0	0	0	0	catFR2	0	R1029W
3952.887	2.276	3955336	REC_WORD_VV	3.109	n/a	<>	n/a	-999	0	18	[0, 0, 0]	n/a	0	1	0	n/a	n/a	0.0	0	0	0	catFR2	0	R1029W
3955.163	1.871	3957612	REC_WORD_VV	5.385	n/a	<>	n/a	-999	0	18	[0, 0, 0]	n/a	0	1	0	n/a	n/a	0.0	0	0	0	catFR2	0	R1029W
3957.034	7.035	3959483	REC_WORD_VV	7.256	n/a	<>	n/a	-999	0	18	[0, 0, 0]	n/a	0	1	0	n/a	n/a	0.0	0	0	0	catFR2	0	R1029W
3964.069	4.623	3966517	REC_WORD	14.291	n/a	IRON	Appliances	4	1	18	[0, 0, 0]	n/a	0	1	0	n/a	n/a	0.0	0	0	0	catFR2	0	R1029W
3968.692	0.495	3971140	REC_WORD_VV	18.914	n/a	<>	n/a	-999	0	18	[0, 0, 0]	n/a	0	1	0	n/a	n/a	0.0	0	0	0	catFR2	0	R1029W
3969.187	0.626	3971635	REC_WORD	19.409	n/a	CEILING	n/a	-999	0	18	[0, 0, 0]	n/a	0	1	0	n/a	n/a	0.0	0	0	0	catFR2	0	R1029W
3969.813	6.013	3972261	REC_WORD	20.035	n/a	FLOOR	n/a	-999	0	18	[0, 0, 0]	n/a	0	1	0	n/a	n/a	0.0	0	0	0	catFR2	0	R1029W
3975.826	1.0	3978273	REC_WORD_VV	26.048	n/a	<>	n/a	-999	0	18	[0, 0, 0]	n/a	0	1	0	n/a	n/a	0.0	0	0	0	catFR2	0	R1029W
3976.826	2.963	3979273	REC_WORD_VV	27.048	n/a	<>	n/a	-999	0	18	[0, 0, 0]	n/a	0	1	0	n/a	n/a	0.0	0	0	0	catFR2	0	R1029W
3979.789	2.193	3982236	REC_END	n/a	n/a	n/a	n/a	-999	0	18	[0, 0, 0]	n/a	0	1	0	n/a	n/a	0.0	0	0	0	catFR2	0	R1029W
3981.982	0.0	3984429	TRIAL	n/a	n/a	n/a	n/a	-999	0	19	[0, 0, 0]	n/a	0	1	0	n/a	n/a	0.0	0	0	0	catFR2	0	R1029W
3981.982	10.0	3984429	COUNTDOWN_START	n/a	n/a	n/a	n/a	-999	0	19	[0, 0, 0]	n/a	0	1	0	n/a	n/a	0.0	0	0	0	catFR2	0	R1029W
3992.41	0.007	3994856	COUNTDOWN_END	n/a	n/a	n/a	n/a	-999	0	19	[0, 0, 0]	n/a	0	1	0	n/a	n/a	0.0	0	0	0	catFR2	0	R1029W
3992.417	1.6	3994863	ORIENT	n/a	n/a	n/a	n/a	-999	0	19	[0, 0, 0]	n/a	0	1	0	n/a	n/a	0.0	0	0	0	catFR2	0	R1029W
3995.869	1.6	3998315	WORD	n/a	wordpools/wordpool_categorized_EN.txt	SOFA	Furniture	1	0	19	[0, 0, 0]	n/a	0	1	0	n/a	n/a	0.0	0	0	0	catFR2	0	R1029W
3998.285	1.6	4000731	WORD	n/a	wordpools/wordpool_categorized_EN.txt	CHAIR	Furniture	2	0	19	[0, 0, 0]	n/a	0	1	0	n/a	n/a	0.0	0	0	0	catFR2	0	R1029W
4000.47	4.6	4002915	STIM_ON	n/a	n/a	n/a	n/a	-999	0	19	[0, 0, 0]	n/a	1	1	4600	GRID52	GRID60	3500.0	50	230	300	catFR2	0	R1029W
4000.686	1.6	4003131	WORD	n/a	wordpools/wordpool_categorized_EN.txt	LILAC	Flowers	3	0	19	[0, 0, 0]	n/a	1	1	4600	GRID52	GRID60	3500.0	50	230	300	catFR2	0	R1029W
4003.203	1.6	4005648	WORD	n/a	wordpools/wordpool_categorized_EN.txt	CARNATION	Flowers	4	0	19	[0, 0, 0]	n/a	1	1	4600	GRID52	GRID60	3500.0	50	230	300	catFR2	0	R1029W
4005.754	1.6	4008199	WORD	n/a	wordpools/wordpool_categorized_EN.txt	TIGER	Zoo	5	0	19	[0, 0, 0]	n/a	0	1	0	n/a	n/a	0.0	0	0	0	catFR2	0	R1029W
4008.153	1.6	4010598	WORD	n/a	wordpools/wordpool_categorized_EN.txt	ZEBRA	Zoo	6	0	19	[0, 0, 0]	n/a	0	1	0	n/a	n/a	0.0	0	0	0	catFR2	0	R1029W
4010.318	4.6	4012763	STIM_ON	n/a	n/a	n/a	n/a	-999	0	19	[0, 0, 0]	n/a	1	1	4600	GRID52	GRID60	3500.0	50	230	300	catFR2	0	R1029W
4010.52	1.6	4012965	WORD	n/a	wordpools/wordpool_categorized_EN.txt	COUCH	Furniture	7	0	19	[0, 0, 0]	n/a	1	1	4600	GRID52	GRID60	3500.0	50	230	300	catFR2	0	R1029W
4012.938	1.6	4015382	WORD	n/a	wordpools/wordpool_categorized_EN.txt	DESK	Furniture	8	0	19	[0, 0, 0]	n/a	1	1	4600	GRID52	GRID60	3500.0	50	230	300	catFR2	0	R1029W
4015.488	1.6	4017932	WORD	n/a	wordpools/wordpool_categorized_EN.txt	ELEPHANT	Zoo	9	1	19	[0, 0, 0]	n/a	0	1	0	n/a	n/a	0.0	0	0	0	catFR2	0	R1029W
4018.022	1.6	4020466	WORD	n/a	wordpools/wordpool_categorized_EN.txt	PANDA	Zoo	10	1	19	[0, 0, 0]	n/a	0	1	0	n/a	n/a	0.0	0	0	0	catFR2	0	R1029W
4020.31	4.6	4022754	STIM_ON	n/a	n/a	n/a	n/a	-999	0	19	[0, 0, 0]	n/a	1	1	4600	GRID52	GRID60	3500.0	50	230	300	catFR2	0	R1029W
4020.523	1.6	4022967	WORD	n/a	wordpools/wordpool_categorized_EN.txt	PETUNIA	Flowers	11	0	19	[0, 0, 0]	n/a	1	1	4600	GRID52	GRID60	3500.0	50	230	300	catFR2	0	R1029W
4023.073	1.6	4025517	WORD	n/a	wordpools/wordpool_categorized_EN.txt	ORCHID	Flowers	12	0	19	[0, 0, 0]	n/a	1	1	4600	GRID52	GRID60	3500.0	50	230	300	catFR2	0	R1029W
4024.691	0.001	4027134	DISTRACT_START	n/a	n/a	n/a	n/a	-999	0	19	[0, 0, 0]	n/a	0	1	0	n/a	n/a	0.0	0	0	0	catFR2	0	R1029W
4024.692	0.016	4027135	START	n/a	n/a	n/a	n/a	-999	0	19	[-999, -999, -999]	n/a	0	1	0	n/a	n/a	0.0	0	0	0	catFR2	0	R1029W
4024.708	12.268	4027151	PROB	12.235	n/a	n/a	n/a	-999	0	19	[5, 9, 8]	22	0	1	0	n/a	n/a	0.0	0	0	0	catFR2	0	R1029W
4036.976	6.451	4039418	PROB	6.431	n/a	n/a	n/a	-999	0	19	[1, 8, 9]	18	0	1	0	n/a	n/a	0.0	0	0	0	catFR2	0	R1029W
4043.427	3.58	4045869	PROB	3.58	n/a	n/a	n/a	-999	0	19	[2, 2, 3]	7	0	1	0	n/a	n/a	0.0	0	0	0	catFR2	0	R1029W
4047.007	0.004	4049449	STOP	n/a	n/a	n/a	n/a	-999	0	19	[-999, -999, -999]	n/a	0	1	0	n/a	n/a	0.0	0	0	0	catFR2	0	R1029W
4047.011	1.184	4049453	DISTRACT_END	n/a	n/a	n/a	n/a	-999	0	19	[0, 0, 0]	n/a	0	1	0	n/a	n/a	0.0	0	0	0	catFR2	0	R1029W
4048.195	3.368	4050636	REC_START	n/a	n/a	n/a	n/a	-999	0	19	[0, 0, 0]	n/a	0	1	0	n/a	n/a	0.0	0	0	0	catFR2	0	R1029W
4051.563	1.568	4054004	REC_WORD	3.368	n/a	PANDA	Zoo	10	1	19	[0, 0, 0]	n/a	0	1	0	n/a	n/a	0.0	0	0	0	catFR2	0	R1029W
4053.131	1.964	4055572	REC_WORD	4.936	n/a	LION	n/a	-999	0	19	[0, 0, 0]	n/a	0	1	0	n/a	n/a	0.0	0	0	0	catFR2	0	R1029W
4055.095	1.679	4057536	REC_WORD_VV	6.9	n/a	<>	n/a	-999	0	19	[0, 0, 0]	n/a	0	1	0	n/a	n/a	0.0	0	0	0	catFR2	0	R1029W
4056.774	1.142	4059215	REC_WORD	8.579	n/a	GIRAFFE	n/a	-999	0	19	[0, 0, 0]	n/a	0	1	0	n/a	n/a	0.0	0	0	0	catFR2	0	R1029W
4057.916	3.573	4060357	REC_WORD	9.721	n/a	RHINO	n/a	-999	0	19	[0, 0, 0]	n/a	0	1	0	n/a	n/a	0.0	0	0	0	catFR2	0	R1029W
4061.489	5.494	4063929	REC_WORD_VV	13.294	n/a	<>	n/a	-999	0	19	[0, 0, 0]	n/a	0	1	0	n/a	n/a	0.0	0	0	0	catFR2	0	R1029W
4066.983	11.222	4069423	REC_WORD	18.788	n/a	ELEPHANT	Zoo	9	1	19	[0, 0, 0]	n/a	0	1	0	n/a	n/a	0.0	0	0	0	catFR2	0	R1029W
4078.205	2.68	4080644	REC_END	n/a	n/a	n/a	n/a	-999	0	19	[0, 0, 0]	n/a	0	1	0	n/a	n/a	0.0	0	0	0	catFR2	0	R1029W
4080.885	0.0	4083324	TRIAL	n/a	n/a	n/a	n/a	-999	0	20	[0, 0, 0]	n/a	0	1	0	n/a	n/a	0.0	0	0	0	catFR2	0	R1029W
4080.885	10.0	4083324	COUNTDOWN_START	n/a	n/a	n/a	n/a	-999	0	20	[0, 0, 0]	n/a	0	1	0	n/a	n/a	0.0	0	0	0	catFR2	0	R1029W
4091.313	0.006	4093751	COUNTDOWN_END	n/a	n/a	n/a	n/a	-999	0	20	[0, 0, 0]	n/a	0	1	0	n/a	n/a	0.0	0	0	0	catFR2	0	R1029W
4091.319	1.6	4093757	ORIENT	n/a	n/a	n/a	n/a	-999	0	20	[0, 0, 0]	n/a	0	1	0	n/a	n/a	0.0	0	0	0	catFR2	0	R1029W
4094.771	4.6	4097209	STIM_ON	n/a	n/a	n/a	n/a	-999	0	20	[0, 0, 0]	n/a	1	1	4600	GRID52	GRID60	3500.0	50	230	300	catFR2	0	R1029W
4094.987	1.6	4097425	WORD	n/a	wordpools/wordpool_categorized_EN.txt	COLA	Beverages	1	0	20	[0, 0, 0]	n/a	1	1	4600	GRID52	GRID60	3500.0	50	230	300	catFR2	0	R1029W
4097.487	1.6	4099924	WORD	n/a	wordpools/wordpool_categorized_EN.txt	TEA	Beverages	2	0	20	[0, 0, 0]	n/a	1	1	4600	GRID52	GRID60	3500.0	50	230	300	catFR2	0	R1029W
4099.904	1.6	4102341	WORD	n/a	wordpools/wordpool_categorized_EN.txt	PEN	OfficeSupplies	3	0	20	[0, 0, 0]	n/a	0	1	0	n/a	n/a	0.0	0	0	0	catFR2	0	R1029W
4102.305	1.6	4104742	WORD	n/a	wordpools/wordpool_categorized_EN.txt	GLUE	OfficeSupplies	4	0	20	[0, 0, 0]	n/a	0	1	0	n/a	n/a	0.0	0	0	0	catFR2	0	R1029W
4104.499	4.6	4106936	STIM_ON	n/a	n/a	n/a	n/a	-999	0	20	[0, 0, 0]	n/a	1	1	4600	GRID52	GRID60	3500.0	50	230	300	catFR2	0	R1029W
4104.706	1.6	4107143	WORD	n/a	wordpools/wordpool_categorized_EN.txt	DRILL	Tools	5	0	20	[0, 0, 0]	n/a	1	1	4600	GRID52	GRID60	3500.0	50	230	300	catFR2	0	R1029W
4107.105	1.6	4109542	WORD	n/a	wordpools/wordpool_categorized_EN.txt	SHOVEL	Tools	6	0	20	[0, 0, 0]	n/a	1	1	4600	GRID52	GRID60	3500.0	50	230	300	catFR2	0	R1029W
4109.506	1.6	4111942	WORD	n/a	wordpools/wordpool_categorized_EN.txt	WINE	Beverages	7	0	20	[0, 0, 0]	n/a	0	1	0	n/a	n/a	0.0	0	0	0	catFR2	0	R1029W
4111.973	1.6	4114409	WORD	n/a	wordpools/wordpool_categorized_EN.txt	BEER	Beverages	8	0	20	[0, 0, 0]	n/a	0	1	0	n/a	n/a	0.0	0	0	0	catFR2	0	R1029W
4114.303	4.6	4116739	STIM_ON	n/a	n/a	n/a	n/a	-999	0	20	[0, 0, 0]	n/a	1	1	4600	GRID52	GRID60	3500.0	50	230	300	catFR2	0	R1029W
4114.507	1.6	4116943	WORD	n/a	wordpools/wordpool_categorized_EN.txt	SANDER	Tools	9	0	20	[0, 0, 0]	n/a	1	1	4600	GRID52	GRID60	3500.0	50	230	300	catFR2	0	R1029W
4116.924	1.6	4119360	WORD	n/a	wordpools/wordpool_categorized_EN.txt	AXE	Tools	10	0	20	[0, 0, 0]	n/a	1	1	4600	GRID52	GRID60	3500.0	50	230	300	catFR2	0	R1029W
4119.308	1.6	4121744	WORD	n/a	wordpools/wordpool_categorized_EN.txt	TAPE	OfficeSupplies	11	0	20	[0, 0, 0]	n/a	0	1	0	n/a	n/a	0.0	0	0	0	catFR2	0	R1029W
4121.726	1.6	4124162	WORD	n/a	wordpools/wordpool_categorized_EN.txt	NOTEBOOK	OfficeSupplies	12	0	20	[0, 0, 0]	n/a	0	1	0	n/a	n/a	0.0	0	0	0	catFR2	0	R1029W
4123.342	0.001	4125777	DISTRACT_START	n/a	n/a	n/a	n/a	-999	0	20	[0, 0, 0]	n/a	0	1	0	n/a	n/a	0.0	0	0	0	catFR2	0	R1029W
4123.343	0.015	4125778	START	n/a	n/a	n/a	n/a	-999	0	20	[-999, -999, -999]	n/a	0	1	0	n/a	n/a	0.0	0	0	0	catFR2	0	R1029W
4123.358	4.785	4125793	PROB	4.753	n/a	n/a	n/a	-999	0	20	[2, 8, 7]	17	0	1	0	n/a	n/a	0.0	0	0	0	catFR2	0	R1029W
4128.143	5.017	4130578	PROB	4.984	n/a	n/a	n/a	-999	0	20	[4, 9, 4]	17	0	1	0	n/a	n/a	0.0	0	0	0	catFR2	0	R1029W
4133.16	10.169	4135595	PROB	10.143	n/a	n/a	n/a	-999	0	20	[9, 2, 7]	18	0	1	0	n/a	n/a	0.0	0	0	0	catFR2	0	R1029W
4143.329	9.351	4145763	PROB	9.351	n/a	n/a	n/a	-999	0	20	[3, 6, 9]	18	0	1	0	n/a	n/a	0.0	0	0	0	catFR2	0	R1029W
4152.68	0.018	4155113	STOP	n/a	n/a	n/a	n/a	-999	0	20	[-999, -999, -999]	n/a	0	1	0	n/a	n/a	0.0	0	0	0	catFR2	0	R1029W
4152.698	1.217	4155131	DISTRACT_END	n/a	n/a	n/a	n/a	-999	0	20	[0, 0, 0]	n/a	0	1	0	n/a	n/a	0.0	0	0	0	catFR2	0	R1029W
4153.915	30.0	4156348	REC_START	n/a	n/a	n/a	n/a	-999	0	20	[0, 0, 0]	n/a	0	1	0	n/a	n/a	0.0	0	0	0	catFR2	0	R1029W
4183.915	0.011	4186345	REC_WORD_VV	30.0	n/a	<>	n/a	-999	0	20	[0, 0, 0]	n/a	0	1	0	n/a	n/a	0.0	0	0	0	catFR2	0	R1029W
4183.926	619.427	4186356	REC_END	n/a	n/a	n/a	n/a	-999	0	20	[0, 0, 0]	n/a	0	1	0	n/a	n/a	0.0	0	0	0	catFR2	0	R1029W
4803.353	10.0	4805733	COUNTDOWN_START	n/a	n/a	n/a	n/a	-999	0	21	[0, 0, 0]	n/a	0	1	0	n/a	n/a	0.0	0	0	0	catFR2	0	R1029W
4803.354	10.427	4805734	TRIAL	n/a	n/a	n/a	n/a	-999	0	21	[0, 0, 0]	n/a	0	1	0	n/a	n/a	0.0	0	0	0	catFR2	0	R1029W
4813.781	0.009	4816160	COUNTDOWN_END	n/a	n/a	n/a	n/a	-999	0	21	[0, 0, 0]	n/a	0	1	0	n/a	n/a	0.0	0	0	0	catFR2	0	R1029W
4813.79	1.6	4816169	ORIENT	n/a	n/a	n/a	n/a	-999	0	21	[0, 0, 0]	n/a	0	1	0	n/a	n/a	0.0	0	0	0	catFR2	0	R1029W
4817.572	4.6	4819951	STIM_ON	n/a	n/a	n/a	n/a	-999	0	21	[0, 0, 0]	n/a	1	1	4600	GRID52	GRID60	3500.0	50	230	300	catFR2	0	R1029W
4817.79	1.6	4820169	WORD	n/a	wordpools/wordpool_categorized_EN.txt	EVERGREEN	Trees	1	1	21	[0, 0, 0]	n/a	1	1	4600	GRID52	GRID60	3500.0	50	230	300	catFR2	0	R1029W
4820.323	1.6	4822702	WORD	n/a	wordpools/wordpool_categorized_EN.txt	WALNUT	Trees	2	0	21	[0, 0, 0]	n/a	1	1	4600	GRID52	GRID60	3500.0	50	230	300	catFR2	0	R1029W
4822.791	1.6	4825170	WORD	n/a	wordpools/wordpool_categorized_EN.txt	JELLYFISH	OceanAnimals	3	0	21	[0, 0, 0]	n/a	0	1	0	n/a	n/a	0.0	0	0	0	catFR2	0	R1029W
4825.274	1.6	4827652	WORD	n/a	wordpools/wordpool_categorized_EN.txt	CRAB	OceanAnimals	4	0	21	[0, 0, 0]	n/a	0	1	0	n/a	n/a	0.0	0	0	0	catFR2	0	R1029W
4827.53	4.6	4829908	STIM_ON	n/a	n/a	n/a	n/a	-999	0	21	[0, 0, 0]	n/a	1	1	4600	GRID52	GRID60	3500.0	50	230	300	catFR2	0	R1029W
4827.742	1.6	4830120	WORD	n/a	wordpools/wordpool_categorized_EN.txt	HURRICANE	Weather	5	1	21	[0, 0, 0]	n/a	1	1	4600	GRID52	GRID60	3500.0	50	230	300	catFR2	0	R1029W
4830.291	1.6	4832669	WORD	n/a	wordpools/wordpool_categorized_EN.txt	RAIN	Weather	6	1	21	[0, 0, 0]	n/a	1	1	4600	GRID52	GRID60	3500.0	50	230	300	catFR2	0	R1029W
4832.86	1.6	4835238	WORD	n/a	wordpools/wordpool_categorized_EN.txt	OCTOPUS	OceanAnimals	7	1	21	[0, 0, 0]	n/a	0	1	0	n/a	n/a	0.0	0	0	0	catFR2	0	R1029W
4835.459	1.6	4837837	WORD	n/a	wordpools/wordpool_categorized_EN.txt	FISH	OceanAnimals	8	0	21	[0, 0, 0]	n/a	0	1	0	n/a	n/a	0.0	0	0	0	catFR2	0	R1029W
4837.66	4.6	4840037	STIM_ON	n/a	n/a	n/a	n/a	-999	0	21	[0, 0, 0]	n/a	1	1	4600	GRID52	GRID60	3500.0	50	230	300	catFR2	0	R1029W
4837.877	1.6	4840254	WORD	n/a	wordpools/wordpool_categorized_EN.txt	OAK	Trees	9	0	21	[0, 0, 0]	n/a	1	1	4600	GRID52	GRID60	3500.0	50	230	300	catFR2	0	R1029W
4840.31	1.6	4842687	WORD	n/a	wordpools/wordpool_categorized_EN.txt	HICKORY	Trees	10	0	21	[0, 0, 0]	n/a	1	1	4600	GRID52	GRID60	3500.0	50	230	300	catFR2	0	R1029W
4842.862	1.6	4845239	WORD	n/a	wordpools/wordpool_categorized_EN.txt	DRIZZLE	Weather	11	0	21	[0, 0, 0]	n/a	0	1	0	n/a	n/a	0.0	0	0	0	catFR2	0	R1029W
4845.295	1.6	4847672	WORD	n/a	wordpools/wordpool_categorized_EN.txt	SNOW	Weather	12	0	21	[0, 0, 0]	n/a	0	1	0	n/a	n/a	0.0	0	0	0	catFR2	0	R1029W
4846.912	0.001	4849289	DISTRACT_START	n/a	n/a	n/a	n/a	-999	0	21	[0, 0, 0]	n/a	0	1	0	n/a	n/a	0.0	0	0	0	catFR2	0	R1029W
4846.913	0.015	4849290	START	n/a	n/a	n/a	n/a	-999	0	21	[-999, -999, -999]	n/a	0	1	0	n/a	n/a	0.0	0	0	0	catFR2	0	R1029W
4846.928	4.484	4849305	PROB	4.455	n/a	n/a	n/a	-999	0	21	[5, 5, 3]	13	0	1	0	n/a	n/a	0.0	0	0	0	catFR2	0	R1029W
4851.412	25.995	4853788	PROB	25.995	n/a	n/a	n/a	-999	0	21	[7, 6, 5]	16	0	1	0	n/a	n/a	0.0	0	0	0	catFR2	0	R1029W
4877.407	0.01	4879781	STOP	n/a	n/a	n/a	n/a	-999	0	21	[-999, -999, -999]	n/a	0	1	0	n/a	n/a	0.0	0	0	0	catFR2	0	R1029W
4877.417	1.084	4879791	DISTRACT_END	n/a	n/a	n/a	n/a	-999	0	21	[0, 0, 0]	n/a	0	1	0	n/a	n/a	0.0	0	0	0	catFR2	0	R1029W
4878.501	0.0	4880875	REC_WORD_VV	0.0	n/a	<>	n/a	-999	0	21	[0, 0, 0]	n/a	0	1	0	n/a	n/a	0.0	0	0	0	catFR2	0	R1029W
4878.501	3.965	4880875	REC_START	n/a	n/a	n/a	n/a	-999	0	21	[0, 0, 0]	n/a	0	1	0	n/a	n/a	0.0	0	0	0	catFR2	0	R1029W
4882.466	1.172	4884840	REC_WORD_VV	3.965	n/a	<>	n/a	-999	0	21	[0, 0, 0]	n/a	0	1	0	n/a	n/a	0.0	0	0	0	catFR2	0	R1029W
4883.638	1.659	4886012	REC_WORD	5.137	n/a	EVERGREEN	Trees	1	1	21	[0, 0, 0]	n/a	0	1	0	n/a	n/a	0.0	0	0	0	catFR2	0	R1029W
4885.297	2.511	4887671	REC_WORD	6.796	n/a	OCTOPUS	OceanAnimals	7	1	21	[0, 0, 0]	n/a	0	1	0	n/a	n/a	0.0	0	0	0	catFR2	0	R1029W
4887.808	0.51	4890181	REC_WORD_VV	9.307	n/a	<>	n/a	-999	0	21	[0, 0, 0]	n/a	0	1	0	n/a	n/a	0.0	0	0	0	catFR2	0	R1029W
4888.318	1.291	4890691	REC_WORD	9.817	n/a	HURRICANE	Weather	5	1	21	[0, 0, 0]	n/a	0	1	0	n/a	n/a	0.0	0	0	0	catFR2	0	R1029W
4889.609	5.736	4891982	REC_WORD	11.108	n/a	RAIN	Weather	6	1	21	[0, 0, 0]	n/a	0	1	0	n/a	n/a	0.0	0	0	0	catFR2	0	R1029W
4895.345	9.537	4897718	REC_WORD_VV	16.844	n/a	<>	n/a	-999	0	21	[0, 0, 0]	n/a	0	1	0	n/a	n/a	0.0	0	0	0	catFR2	0	R1029W
4904.882	3.634	4907254	REC_WORD_VV	26.381	n/a	<>	n/a	-999	0	21	[0, 0, 0]	n/a	0	1	0	n/a	n/a	0.0	0	0	0	catFR2	0	R1029W
4908.516	1.841	4910888	REC_END	n/a	n/a	n/a	n/a	-999	0	21	[0, 0, 0]	n/a	0	1	0	n/a	n/a	0.0	0	0	0	catFR2	0	R1029W
4910.357	10.0	4912728	COUNTDOWN_START	n/a	n/a	n/a	n/a	-999	0	22	[0, 0, 0]	n/a	0	0	0	n/a	n/a	0.0	0	0	0	catFR2	0	R1029W
4910.357	10.428	4912728	TRIAL	n/a	n/a	n/a	n/a	-999	0	22	[0, 0, 0]	n/a	0	0	0	n/a	n/a	0.0	0	0	0	catFR2	0	R1029W
4920.785	0.008	4923156	COUNTDOWN_END	n/a	n/a	n/a	n/a	-999	0	22	[0, 0, 0]	n/a	0	0	0	n/a	n/a	0.0	0	0	0	catFR2	0	R1029W
4920.793	1.6	4923164	ORIENT	n/a	n/a	n/a	n/a	-999	0	22	[0, 0, 0]	n/a	0	0	0	n/a	n/a	0.0	0	0	0	catFR2	0	R1029W
4924.393	1.6	4926763	WORD	n/a	wordpools/wordpool_categorized_EN.txt	GIRAFFE	Zoo	1	0	22	[0, 0, 0]	n/a	0	0	0	n/a	n/a	0.0	0	0	0	catFR2	0	R1029W
4926.96	1.6	4929330	WORD	n/a	wordpools/wordpool_categorized_EN.txt	GORILLA	Zoo	2	1	22	[0, 0, 0]	n/a	0	0	0	n/a	n/a	0.0	0	0	0	catFR2	0	R1029W
4929.41	1.6	4931780	WORD	n/a	wordpools/wordpool_categorized_EN.txt	ISLAND	Landscapes	3	1	22	[0, 0, 0]	n/a	0	0	0	n/a	n/a	0.0	0	0	0	catFR2	0	R1029W
4932.028	1.6	4934398	WORD	n/a	wordpools/wordpool_categorized_EN.txt	STREAM	Landscapes	4	0	22	[0, 0, 0]	n/a	0	0	0	n/a	n/a	0.0	0	0	0	catFR2	0	R1029W
4934.595	1.6	4936965	WORD	n/a	wordpools/wordpool_categorized_EN.txt	HAND	BodyParts	5	0	22	[0, 0, 0]	n/a	0	0	0	n/a	n/a	0.0	0	0	0	catFR2	0	R1029W
4937.128	1.6	4939497	WORD	n/a	wordpools/wordpool_categorized_EN.txt	TOE	BodyParts	6	0	22	[0, 0, 0]	n/a	0	0	0	n/a	n/a	0.0	0	0	0	catFR2	0	R1029W
4939.579	1.6	4941948	WORD	n/a	wordpools/wordpool_categorized_EN.txt	HILLS	Landscapes	7	0	22	[0, 0, 0]	n/a	0	0	0	n/a	n/a	0.0	0	0	0	catFR2	0	R1029W
4942.063	1.6	4944432	WORD	n/a	wordpools/wordpool_categorized_EN.txt	OCEAN	Landscapes	8	0	22	[0, 0, 0]	n/a	0	0	0	n/a	n/a	0.0	0	0	0	catFR2	0	R1029W
4944.513	1.6	4946882	WORD	n/a	wordpools/wordpool_categorized_EN.txt	CHEETAH	Zoo	9	1	22	[0, 0, 0]	n/a	0	0	0	n/a	n/a	0.0	0	0	0	catFR2	0	R1029W
4947.064	1.6	4949432	WORD	n/a	wordpools/wordpool_categorized_EN.txt	CHIMPANZEE	Zoo	10	0	22	[0, 0, 0]	n/a	0	0	0	n/a	n/a	0.0	0	0	0	catFR2	0	R1029W
4949.632	1.6	4952000	WORD	n/a	wordpools/wordpool_categorized_EN.txt	NOSE	BodyParts	11	0	22	[0, 0, 0]	n/a	0	0	0	n/a	n/a	0.0	0	0	0	catFR2	0	R1029W
4952.048	1.6	4954416	WORD	n/a	wordpools/wordpool_categorized_EN.txt	EYE	BodyParts	12	0	22	[0, 0, 0]	n/a	0	0	0	n/a	n/a	0.0	0	0	0	catFR2	0	R1029W
4953.649	0.001	4956017	DISTRACT_START	n/a	n/a	n/a	n/a	-999	0	22	[0, 0, 0]	n/a	0	0	0	n/a	n/a	0.0	0	0	0	catFR2	0	R1029W
4953.65	0.016	4956018	START	n/a	n/a	n/a	n/a	-999	0	22	[-999, -999, -999]	n/a	0	0	0	n/a	n/a	0.0	0	0	0	catFR2	0	R1029W
4953.666	7.201	4956034	PROB	7.166	n/a	n/a	n/a	-999	0	22	[2, 3, 7]	12	0	0	0	n/a	n/a	0.0	0	0	0	catFR2	0	R1029W
4960.867	6.417	4963234	PROB	6.396	n/a	n/a	n/a	-999	0	22	[6, 7, 7]	20	0	0	0	n/a	n/a	0.0	0	0	0	catFR2	0	R1029W
4967.284	3.452	4969651	PROB	3.428	n/a	n/a	n/a	-999	0	22	[8, 2, 9]	19	0	0	0	n/a	n/a	0.0	0	0	0	catFR2	0	R1029W
4970.736	3.847	4973103	PROB	3.847	n/a	n/a	n/a	-999	0	22	[1, 5, 8]	14	0	0	0	n/a	n/a	0.0	0	0	0	catFR2	0	R1029W
4974.583	0.019	4976949	STOP	n/a	n/a	n/a	n/a	-999	0	22	[-999, -999, -999]	n/a	0	0	0	n/a	n/a	0.0	0	0	0	catFR2	0	R1029W
4974.602	1.185	4976968	DISTRACT_END	n/a	n/a	n/a	n/a	-999	0	22	[0, 0, 0]	n/a	0	0	0	n/a	n/a	0.0	0	0	0	catFR2	0	R1029W
4975.787	1.536	4978153	REC_START	n/a	n/a	n/a	n/a	-999	0	22	[0, 0, 0]	n/a	0	0	0	n/a	n/a	0.0	0	0	0	catFR2	0	R1029W
4977.323	2.407	4979689	REC_WORD_VV	1.536	n/a	<>	n/a	-999	0	22	[0, 0, 0]	n/a	0	0	0	n/a	n/a	0.0	0	0	0	catFR2	0	R1029W
4979.73	6.204	4982096	REC_WORD_VV	3.943	n/a	<>	n/a	-999	0	22	[0, 0, 0]	n/a	0	0	0	n/a	n/a	0.0	0	0	0	catFR2	0	R1029W
4985.934	5.783	4988299	REC_WORD_VV	10.147	n/a	<>	n/a	-999	0	22	[0, 0, 0]	n/a	0	0	0	n/a	n/a	0.0	0	0	0	catFR2	0	R1029W
4991.717	3.098	4994082	REC_WORD	15.93	n/a	ISLAND	Landscapes	3	1	22	[0, 0, 0]	n/a	0	0	0	n/a	n/a	0.0	0	0	0	catFR2	0	R1029W
4994.815	2.11	4997180	REC_WORD_VV	19.028	n/a	<>	n/a	-999	0	22	[0, 0, 0]	n/a	0	0	0	n/a	n/a	0.0	0	0	0	catFR2	0	R1029W
4996.925	3.781	4999289	REC_WORD	21.138	n/a	CHEETAH	Zoo	9	1	22	[0, 0, 0]	n/a	0	0	0	n/a	n/a	0.0	0	0	0	catFR2	0	R1029W
5000.706	3.257	5003070	REC_WORD	24.919	n/a	GORILLA	Zoo	2	1	22	[0, 0, 0]	n/a	0	0	0	n/a	n/a	0.0	0	0	0	catFR2	0	R1029W
5003.963	1.228	5006327	REC_WORD_VV	28.176	n/a	<>	n/a	-999	0	22	[0, 0, 0]	n/a	0	0	0	n/a	n/a	0.0	0	0	0	catFR2	0	R1029W
5005.191	0.608	5007555	REC_WORD_VV	29.404	n/a	<>	n/a	-999	0	22	[0, 0, 0]	n/a	0	0	0	n/a	n/a	0.0	0	0	0	catFR2	0	R1029W
5005.799	1.809	5008163	REC_END	n/a	n/a	n/a	n/a	-999	0	22	[0, 0, 0]	n/a	0	0	0	n/a	n/a	0.0	0	0	0	catFR2	0	R1029W
5007.608	10.0	5009972	COUNTDOWN_START	n/a	n/a	n/a	n/a	-999	0	23	[0, 0, 0]	n/a	0	1	0	n/a	n/a	0.0	0	0	0	catFR2	0	R1029W
5007.609	10.427	5009973	TRIAL	n/a	n/a	n/a	n/a	-999	0	23	[0, 0, 0]	n/a	0	1	0	n/a	n/a	0.0	0	0	0	catFR2	0	R1029W
5018.036	0.008	5020399	COUNTDOWN_END	n/a	n/a	n/a	n/a	-999	0	23	[0, 0, 0]	n/a	0	1	0	n/a	n/a	0.0	0	0	0	catFR2	0	R1029W
5018.044	1.6	5020407	ORIENT	n/a	n/a	n/a	n/a	-999	0	23	[0, 0, 0]	n/a	0	1	0	n/a	n/a	0.0	0	0	0	catFR2	0	R1029W
5022.011	1.6	5024373	WORD	n/a	wordpools/wordpool_categorized_EN.txt	CEDAR	Trees	1	0	23	[0, 0, 0]	n/a	0	1	0	n/a	n/a	0.0	0	0	0	catFR2	0	R1029W
5024.428	1.6	5026790	WORD	n/a	wordpools/wordpool_categorized_EN.txt	PINE	Trees	2	0	23	[0, 0, 0]	n/a	0	1	0	n/a	n/a	0.0	0	0	0	catFR2	0	R1029W
5026.604	4.6	5028966	STIM_ON	n/a	n/a	n/a	n/a	-999	0	23	[0, 0, 0]	n/a	1	1	4600	GRID52	GRID60	3500.0	50	230	300	catFR2	0	R1029W
5026.813	1.6	5029175	WORD	n/a	wordpools/wordpool_categorized_EN.txt	DOLL	Toys	3	1	23	[0, 0, 0]	n/a	1	1	4600	GRID52	GRID60	3500.0	50	230	300	catFR2	0	R1029W
5029.379	1.6	5031741	WORD	n/a	wordpools/wordpool_categorized_EN.txt	MARBLES	Toys	4	0	23	[0, 0, 0]	n/a	1	1	4600	GRID52	GRID60	3500.0	50	230	300	catFR2	0	R1029W
5031.98	1.6	5034342	WORD	n/a	wordpools/wordpool_categorized_EN.txt	ORANGE	Fruit	5	0	23	[0, 0, 0]	n/a	0	1	0	n/a	n/a	0.0	0	0	0	catFR2	0	R1029W
5034.397	1.6	5036758	WORD	n/a	wordpools/wordpool_categorized_EN.txt	STRAWBERRY	Fruit	6	0	23	[0, 0, 0]	n/a	0	1	0	n/a	n/a	0.0	0	0	0	catFR2	0	R1029W
5036.676	4.6	5039037	STIM_ON	n/a	n/a	n/a	n/a	-999	0	23	[0, 0, 0]	n/a	1	1	4600	GRID52	GRID60	3500.0	50	230	300	catFR2	0	R1029W
5036.882	1.6	5039243	WORD	n/a	wordpools/wordpool_categorized_EN.txt	PUZZLE	Toys	7	1	23	[0, 0, 0]	n/a	1	1	4600	GRID52	GRID60	3500.0	50	230	300	catFR2	0	R1029W
5039.481	1.6	5041842	WORD	n/a	wordpools/wordpool_categorized_EN.txt	DOLLHOUSE	Toys	8	1	23	[0, 0, 0]	n/a	1	1	4600	GRID52	GRID60	3500.0	50	230	300	catFR2	0	R1029W
5042.098	1.6	5044459	WORD	n/a	wordpools/wordpool_categorized_EN.txt	ELM	Trees	9	0	23	[0, 0, 0]	n/a	0	1	0	n/a	n/a	0.0	0	0	0	catFR2	0	R1029W
5044.633	1.6	5046994	WORD	n/a	wordpools/wordpool_categorized_EN.txt	MAPLE	Trees	10	0	23	[0, 0, 0]	n/a	0	1	0	n/a	n/a	0.0	0	0	0	catFR2	0	R1029W
