onset	duration	sample	trial_type	response_time	stim_file	item_name	category	serialpos	recalled	list	test	answer	stimulation	stim_list	stim_duration	anode_label	cathode_label	amplitude	pulse_freq	n_pulses	pulse_width	experiment	session	subject
0.0	44.317	140738	SESS_START	n/a	n/a	n/a	n/a	-999	0	-999	[0, 0, 0]	n/a	0	0	0	n/a	n/a	0.0	0	0	0	catFR2	0	R1157C
44.317	10.0	162894	COUNTDOWN_START	n/a	n/a	n/a	n/a	-999	0	-999	[0, 0, 0]	n/a	0	0	0	n/a	n/a	0.0	0	0	0	catFR2	0	R1157C
54.745	3.908	168108	COUNTDOWN_END	n/a	n/a	n/a	n/a	-999	0	-999	[0, 0, 0]	n/a	0	0	0	n/a	n/a	0.0	0	0	0	catFR2	0	R1157C
58.653	1.6	170061	PRACTICE_WORD	n/a	n/a	BEAM	n/a	-999	0	1	[0, 0, 0]	n/a	0	0	0	n/a	n/a	0.0	0	0	0	catFR2	0	R1157C
61.069	1.6	171269	PRACTICE_WORD	n/a	n/a	FLOOD	n/a	-999	0	2	[0, 0, 0]	n/a	0	0	0	n/a	n/a	0.0	0	0	0	catFR2	0	R1157C
63.57	1.6	172520	PRACTICE_WORD	n/a	n/a	WATCH	n/a	-999	0	3	[0, 0, 0]	n/a	0	0	0	n/a	n/a	0.0	0	0	0	catFR2	0	R1157C
66.07	1.6	173770	PRACTICE_WORD	n/a	n/a	RHINO	n/a	-999	0	4	[0, 0, 0]	n/a	0	0	0	n/a	n/a	0.0	0	0	0	catFR2	0	R1157C
68.605	1.6	175037	PRACTICE_WORD	n/a	n/a	CAMEL	n/a	-999	0	5	[0, 0, 0]	n/a	0	0	0	n/a	n/a	0.0	0	0	0	catFR2	0	R1157C
71.121	1.6	176295	PRACTICE_WORD	n/a	n/a	TONGUE	n/a	-999	0	6	[0, 0, 0]	n/a	0	0	0	n/a	n/a	0.0	0	0	0	catFR2	0	R1157C
73.589	1.6	177529	PRACTICE_WORD	n/a	n/a	IRON	n/a	-999	0	7	[0, 0, 0]	n/a	0	0	0	n/a	n/a	0.0	0	0	0	catFR2	0	R1157C
76.122	1.6	178795	PRACTICE_WORD	n/a	n/a	CHEST	n/a	-999	0	8	[0, 0, 0]	n/a	0	0	0	n/a	n/a	0.0	0	0	0	catFR2	0	R1157C
78.707	1.6	180088	PRACTICE_WORD	n/a	n/a	WAGON	n/a	-999	0	9	[0, 0, 0]	n/a	0	0	0	n/a	n/a	0.0	0	0	0	catFR2	0	R1157C
81.123	1.6	181295	PRACTICE_WORD	n/a	n/a	ATTIC	n/a	-999	0	10	[0, 0, 0]	n/a	0	0	0	n/a	n/a	0.0	0	0	0	catFR2	0	R1157C
83.524	1.6	182496	PRACTICE_WORD	n/a	n/a	COTTON	n/a	-999	0	11	[0, 0, 0]	n/a	0	0	0	n/a	n/a	0.0	0	0	0	catFR2	0	R1157C
85.975	1.6	183721	PRACTICE_WORD	n/a	n/a	RING	n/a	-999	0	12	[0, 0, 0]	n/a	0	0	0	n/a	n/a	0.0	0	0	0	catFR2	0	R1157C
87.592	0.0	184530	PRACTICE_DISTRACT_START	n/a	n/a	n/a	n/a	-999	0	-999	[0, 0, 0]	n/a	0	0	0	n/a	n/a	0.0	0	0	0	catFR2	0	R1157C
87.592	0.016	184530	START	n/a	n/a	n/a	n/a	-999	0	-1	[-999, -999, -999]	n/a	0	-999	0	n/a	n/a	0.0	0	0	0	catFR2	0	R1157C
87.608	7.568	184538	PROB	7.539	n/a	n/a	n/a	-999	0	-1	[5, 9, 1]	15	0	-999	0	n/a	n/a	0.0	0	0	0	catFR2	0	R1157C
95.176	8.719	188321	PROB	8.7	n/a	n/a	n/a	-999	0	-1	[5, 7, 4]	16	0	-999	0	n/a	n/a	0.0	0	0	0	catFR2	0	R1157C
103.895	5.733	192680	PROB	5.733	n/a	n/a	n/a	-999	0	-1	[7, 8, 2]	17	0	-999	0	n/a	n/a	0.0	0	0	0	catFR2	0	R1157C
109.628	0.018	195547	STOP	n/a	n/a	n/a	n/a	-999	0	-1	[-999, -999, -999]	n/a	0	-999	0	n/a	n/a	0.0	0	0	0	catFR2	0	R1157C
109.646	0.652	195556	PRACTICE_DISTRACT_END	n/a	n/a	n/a	n/a	-999	0	-999	[0, 0, 0]	n/a	0	0	0	n/a	n/a	0.0	0	0	0	catFR2	0	R1157C
110.298	30.515	195882	PRACTICE_REC_START	n/a	n/a	n/a	n/a	-999	0	-999	[0, 0, 0]	n/a	0	0	0	n/a	n/a	0.0	0	0	0	catFR2	0	R1157C
140.813	9.074	211138	PRACTICE_REC_END	n/a	n/a	n/a	n/a	-999	0	-999	[0, 0, 0]	n/a	0	0	0	n/a	n/a	0.0	0	0	0	catFR2	0	R1157C
149.887	0.0	215674	TRIAL	n/a	n/a	n/a	n/a	-999	0	1	[0, 0, 0]	n/a	0	1	0	n/a	n/a	0.0	0	0	0	catFR2	0	R1157C
149.887	10.0	215674	COUNTDOWN_START	n/a	n/a	n/a	n/a	-999	0	1	[0, 0, 0]	n/a	0	1	0	n/a	n/a	0.0	0	0	0	catFR2	0	R1157C
160.315	0.007	220888	COUNTDOWN_END	n/a	n/a	n/a	n/a	-999	0	1	[0, 0, 0]	n/a	0	1	0	n/a	n/a	0.0	0	0	0	catFR2	0	R1157C
160.322	1.6	220891	ORIENT	n/a	n/a	n/a	n/a	-999	0	1	[0, 0, 0]	n/a	0	1	0	n/a	n/a	0.0	0	0	0	catFR2	0	R1157C
164.155	1.6	222807	WORD	n/a	wordpools/wordpool_categorized_EN.txt	COAT	Clothing	1	0	1	[0, 0, 0]	n/a	0	1	0	n/a	n/a	0.0	0	0	0	catFR2	0	R1157C
166.64	1.6	224050	WORD	n/a	wordpools/wordpool_categorized_EN.txt	JEANS	Clothing	2	0	1	[0, 0, 0]	n/a	0	1	0	n/a	n/a	0.0	0	0	0	catFR2	0	R1157C
168.865	4.6	225162	STIM_ON	n/a	n/a	n/a	n/a	-999	0	1	[0, 0, 0]	n/a	1	1	4600	HH1	HH2	500.0	50	230	300	catFR2	0	R1157C
169.073	1.6	225266	WORD	n/a	wordpools/wordpool_categorized_EN.txt	PUDDING	Desserts	3	1	1	[0, 0, 0]	n/a	1	1	4600	HH1	HH2	500.0	50	230	300	catFR2	0	R1157C
171.49	1.6	226475	WORD	n/a	wordpools/wordpool_categorized_EN.txt	CUPCAKE	Desserts	4	1	1	[0, 0, 0]	n/a	1	1	4600	HH1	HH2	500.0	50	230	300	catFR2	0	R1157C
173.875	1.6	227667	WORD	n/a	wordpools/wordpool_categorized_EN.txt	LEG	BodyParts	5	0	1	[0, 0, 0]	n/a	0	1	0	n/a	n/a	0.0	0	0	0	catFR2	0	R1157C
176.342	1.6	228900	WORD	n/a	wordpools/wordpool_categorized_EN.txt	FINGERS	BodyParts	6	1	1	[0, 0, 0]	n/a	0	1	0	n/a	n/a	0.0	0	0	0	catFR2	0	R1157C
178.564	4.6	230011	STIM_ON	n/a	n/a	n/a	n/a	-999	0	1	[0, 0, 0]	n/a	1	1	4600	HH1	HH2	500.0	50	230	300	catFR2	0	R1157C
178.776	1.6	230117	WORD	n/a	wordpools/wordpool_categorized_EN.txt	COOKIE	Desserts	7	0	1	[0, 0, 0]	n/a	1	1	4600	HH1	HH2	500.0	50	230	300	catFR2	0	R1157C
181.259	1.6	231359	WORD	n/a	wordpools/wordpool_categorized_EN.txt	CAKE	Desserts	8	1	1	[0, 0, 0]	n/a	1	1	4600	HH1	HH2	500.0	50	230	300	catFR2	0	R1157C
183.693	1.6	232576	WORD	n/a	wordpools/wordpool_categorized_EN.txt	SOCKS	Clothing	9	0	1	[0, 0, 0]	n/a	0	1	0	n/a	n/a	0.0	0	0	0	catFR2	0	R1157C
186.194	1.6	233826	WORD	n/a	wordpools/wordpool_categorized_EN.txt	SHIRT	Clothing	10	0	1	[0, 0, 0]	n/a	0	1	0	n/a	n/a	0.0	0	0	0	catFR2	0	R1157C
188.504	4.6	234981	STIM_ON	n/a	n/a	n/a	n/a	-999	0	1	[0, 0, 0]	n/a	1	1	4600	HH1	HH2	500.0	50	230	300	catFR2	0	R1157C
188.711	1.6	235084	WORD	n/a	wordpools/wordpool_categorized_EN.txt	EYE	BodyParts	11	0	1	[0, 0, 0]	n/a	1	1	4600	HH1	HH2	500.0	50	230	300	catFR2	0	R1157C
191.211	1.6	236334	WORD	n/a	wordpools/wordpool_categorized_EN.txt	ARM	BodyParts	12	0	1	[0, 0, 0]	n/a	1	1	4600	HH1	HH2	500.0	50	230	300	catFR2	0	R1157C
192.828	0.001	237143	DISTRACT_START	n/a	n/a	n/a	n/a	-999	0	1	[0, 0, 0]	n/a	0	1	0	n/a	n/a	0.0	0	0	0	catFR2	0	R1157C
192.829	0.016	237143	START	n/a	n/a	n/a	n/a	-999	0	1	[-999, -999, -999]	n/a	0	1	0	n/a	n/a	0.0	0	0	0	catFR2	0	R1157C
192.845	4.767	237151	PROB	4.743	n/a	n/a	n/a	-999	0	1	[6, 1, 9]	16	0	1	0	n/a	n/a	0.0	0	0	0	catFR2	0	R1157C
197.612	3.118	239534	PROB	3.088	n/a	n/a	n/a	-999	0	1	[3, 4, 3]	10	0	1	0	n/a	n/a	0.0	0	0	0	catFR2	0	R1157C
200.73	4.05	241093	PROB	4.018	n/a	n/a	n/a	-999	0	1	[5, 8, 7]	20	0	1	0	n/a	n/a	0.0	0	0	0	catFR2	0	R1157C
204.78	2.801	243118	PROB	2.768	n/a	n/a	n/a	-999	0	1	[5, 2, 2]	9	0	1	0	n/a	n/a	0.0	0	0	0	catFR2	0	R1157C
207.581	3.466	244518	PROB	3.438	n/a	n/a	n/a	-999	0	1	[1, 2, 5]	8	0	1	0	n/a	n/a	0.0	0	0	0	catFR2	0	R1157C
211.047	3.565	246251	PROB	3.565	n/a	n/a	n/a	-999	0	1	[5, 3, 6]	14	0	1	0	n/a	n/a	0.0	0	0	0	catFR2	0	R1157C
214.612	0.003	248034	STOP	n/a	n/a	n/a	n/a	-999	0	1	[-999, -999, -999]	n/a	0	1	0	n/a	n/a	0.0	0	0	0	catFR2	0	R1157C
214.615	1.139	248035	DISTRACT_END	n/a	n/a	n/a	n/a	-999	0	1	[0, 0, 0]	n/a	0	1	0	n/a	n/a	0.0	0	0	0	catFR2	0	R1157C
215.754	4.232	248605	REC_START	n/a	n/a	n/a	n/a	-999	0	1	[0, 0, 0]	n/a	0	1	0	n/a	n/a	0.0	0	0	0	catFR2	0	R1157C
219.986	0.815	250720	REC_WORD	4.232	n/a	CUPCAKE	Desserts	4	1	1	[0, 0, 0]	n/a	0	1	0	n/a	n/a	0.0	0	0	0	catFR2	0	R1157C
220.801	6.215	251128	REC_WORD	5.047	n/a	CAKE	Desserts	8	1	1	[0, 0, 0]	n/a	0	1	0	n/a	n/a	0.0	0	0	0	catFR2	0	R1157C
227.016	12.183	254235	REC_WORD	11.262	n/a	PUDDING	Desserts	3	1	1	[0, 0, 0]	n/a	0	1	0	n/a	n/a	0.0	0	0	0	catFR2	0	R1157C
239.199	6.562	260326	REC_WORD	23.445	n/a	FINGERS	BodyParts	6	1	1	[0, 0, 0]	n/a	0	1	0	n/a	n/a	0.0	0	0	0	catFR2	0	R1157C
245.761	1.877	263607	REC_END	n/a	n/a	n/a	n/a	-999	0	1	[0, 0, 0]	n/a	0	1	0	n/a	n/a	0.0	0	0	0	catFR2	0	R1157C
247.638	10.0	264545	COUNTDOWN_START	n/a	n/a	n/a	n/a	-999	0	2	[0, 0, 0]	n/a	0	1	0	n/a	n/a	0.0	0	0	0	catFR2	0	R1157C
247.639	10.427	264546	TRIAL	n/a	n/a	n/a	n/a	-999	0	2	[0, 0, 0]	n/a	0	1	0	n/a	n/a	0.0	0	0	0	catFR2	0	R1157C
258.066	0.007	269759	COUNTDOWN_END	n/a	n/a	n/a	n/a	-999	0	2	[0, 0, 0]	n/a	0	1	0	n/a	n/a	0.0	0	0	0	catFR2	0	R1157C
258.073	1.6	269762	ORIENT	n/a	n/a	n/a	n/a	-999	0	2	[0, 0, 0]	n/a	0	1	0	n/a	n/a	0.0	0	0	0	catFR2	0	R1157C
261.858	1.6	271654	WORD	n/a	wordpools/wordpool_categorized_EN.txt	GIRAFFE	Zoo	1	1	2	[0, 0, 0]	n/a	0	1	0	n/a	n/a	0.0	0	0	0	catFR2	0	R1157C
264.458	1.6	272954	WORD	n/a	wordpools/wordpool_categorized_EN.txt	BEAR	Zoo	2	0	2	[0, 0, 0]	n/a	0	1	0	n/a	n/a	0.0	0	0	0	catFR2	0	R1157C
266.756	4.6	274103	STIM_ON	n/a	n/a	n/a	n/a	-999	0	2	[0, 0, 0]	n/a	1	1	4600	HH1	HH2	500.0	50	230	300	catFR2	0	R1157C
266.975	1.6	274213	WORD	n/a	wordpools/wordpool_categorized_EN.txt	ROOSTER	FarmAnimals	3	1	2	[0, 0, 0]	n/a	1	1	4600	HH1	HH2	500.0	50	230	300	catFR2	0	R1157C
269.459	1.6	275455	WORD	n/a	wordpools/wordpool_categorized_EN.txt	COW	FarmAnimals	4	0	2	[0, 0, 0]	n/a	1	1	4600	HH1	HH2	500.0	50	230	300	catFR2	0	R1157C
272.059	1.6	276754	WORD	n/a	wordpools/wordpool_categorized_EN.txt	CARROT	Vegetables	5	0	2	[0, 0, 0]	n/a	0	1	0	n/a	n/a	0.0	0	0	0	catFR2	0	R1157C
274.477	1.6	277963	WORD	n/a	wordpools/wordpool_categorized_EN.txt	ONION	Vegetables	6	0	2	[0, 0, 0]	n/a	0	1	0	n/a	n/a	0.0	0	0	0	catFR2	0	R1157C
276.672	4.6	279061	STIM_ON	n/a	n/a	n/a	n/a	-999	0	2	[0, 0, 0]	n/a	1	1	4600	HH1	HH2	500.0	50	230	300	catFR2	0	R1157C
276.877	1.6	279163	WORD	n/a	wordpools/wordpool_categorized_EN.txt	BULL	FarmAnimals	7	1	2	[0, 0, 0]	n/a	1	1	4600	HH1	HH2	500.0	50	230	300	catFR2	0	R1157C
279.394	1.6	280422	WORD	n/a	wordpools/wordpool_categorized_EN.txt	TURKEY	FarmAnimals	8	1	2	[0, 0, 0]	n/a	1	1	4600	HH1	HH2	500.0	50	230	300	catFR2	0	R1157C
281.962	1.6	281705	WORD	n/a	wordpools/wordpool_categorized_EN.txt	TIGER	Zoo	9	1	2	[0, 0, 0]	n/a	0	1	0	n/a	n/a	0.0	0	0	0	catFR2	0	R1157C
284.429	1.6	282939	WORD	n/a	wordpools/wordpool_categorized_EN.txt	LION	Zoo	10	1	2	[0, 0, 0]	n/a	0	1	0	n/a	n/a	0.0	0	0	0	catFR2	0	R1157C
286.801	4.6	284125	STIM_ON	n/a	n/a	n/a	n/a	-999	0	2	[0, 0, 0]	n/a	1	1	4600	HH1	HH2	500.0	50	230	300	catFR2	0	R1157C
287.011	1.6	284230	WORD	n/a	wordpools/wordpool_categorized_EN.txt	POTATO	Vegetables	11	0	2	[0, 0, 0]	n/a	1	1	4600	HH1	HH2	500.0	50	230	300	catFR2	0	R1157C
289.563	1.6	285506	WORD	n/a	wordpools/wordpool_categorized_EN.txt	CUCUMBER	Vegetables	12	0	2	[0, 0, 0]	n/a	1	1	4600	HH1	HH2	500.0	50	230	300	catFR2	0	R1157C
291.179	0.001	286314	DISTRACT_START	n/a	n/a	n/a	n/a	-999	0	2	[0, 0, 0]	n/a	0	1	0	n/a	n/a	0.0	0	0	0	catFR2	0	R1157C
291.18	0.017	286314	START	n/a	n/a	n/a	n/a	-999	0	2	[-999, -999, -999]	n/a	0	1	0	n/a	n/a	0.0	0	0	0	catFR2	0	R1157C
291.197	3.584	286323	PROB	3.551	n/a	n/a	n/a	-999	0	2	[1, 8, 9]	18	0	1	0	n/a	n/a	0.0	0	0	0	catFR2	0	R1157C
294.781	9.25	288114	PROB	9.222	n/a	n/a	n/a	-999	0	2	[6, 9, 2]	17	0	1	0	n/a	n/a	0.0	0	0	0	catFR2	0	R1157C
304.031	2.785	292739	PROB	2.765	n/a	n/a	n/a	-999	0	2	[2, 6, 3]	11	0	1	0	n/a	n/a	0.0	0	0	0	catFR2	0	R1157C
306.816	5.355	294131	PROB	5.355	n/a	n/a	n/a	-999	0	2	[4, 8, 5]	17	0	1	0	n/a	n/a	0.0	0	0	0	catFR2	0	R1157C
312.171	0.013	296809	STOP	n/a	n/a	n/a	n/a	-999	0	2	[-999, -999, -999]	n/a	0	1	0	n/a	n/a	0.0	0	0	0	catFR2	0	R1157C
312.184	1.184	296815	DISTRACT_END	n/a	n/a	n/a	n/a	-999	0	2	[0, 0, 0]	n/a	0	1	0	n/a	n/a	0.0	0	0	0	catFR2	0	R1157C
313.368	1.426	297407	REC_START	n/a	n/a	n/a	n/a	-999	0	2	[0, 0, 0]	n/a	0	1	0	n/a	n/a	0.0	0	0	0	catFR2	0	R1157C
314.794	0.514	298120	REC_WORD	1.426	n/a	TIGER	Zoo	9	1	2	[0, 0, 0]	n/a	0	1	0	n/a	n/a	0.0	0	0	0	catFR2	0	R1157C
315.308	0.705	298377	REC_WORD	1.94	n/a	LION	Zoo	10	1	2	[0, 0, 0]	n/a	0	1	0	n/a	n/a	0.0	0	0	0	catFR2	0	R1157C
316.013	1.403	298729	REC_WORD	2.645	n/a	GIRAFFE	Zoo	1	1	2	[0, 0, 0]	n/a	0	1	0	n/a	n/a	0.0	0	0	0	catFR2	0	R1157C
317.416	1.285	299431	REC_WORD	4.048	n/a	BULL	FarmAnimals	7	1	2	[0, 0, 0]	n/a	0	1	0	n/a	n/a	0.0	0	0	0	catFR2	0	R1157C
318.701	0.54	300073	REC_WORD	5.333	n/a	ROOSTER	FarmAnimals	3	1	2	[0, 0, 0]	n/a	0	1	0	n/a	n/a	0.0	0	0	0	catFR2	0	R1157C
319.241	24.138	300343	REC_WORD	5.873	n/a	TURKEY	FarmAnimals	8	1	2	[0, 0, 0]	n/a	0	1	0	n/a	n/a	0.0	0	0	0	catFR2	0	R1157C
343.379	1.544	312411	REC_END	n/a	n/a	n/a	n/a	-999	0	2	[0, 0, 0]	n/a	0	1	0	n/a	n/a	0.0	0	0	0	catFR2	0	R1157C
344.923	10.0	313183	COUNTDOWN_START	n/a	n/a	n/a	n/a	-999	0	3	[0, 0, 0]	n/a	0	1	0	n/a	n/a	0.0	0	0	0	catFR2	0	R1157C
344.924	10.427	313184	TRIAL	n/a	n/a	n/a	n/a	-999	0	3	[0, 0, 0]	n/a	0	1	0	n/a	n/a	0.0	0	0	0	catFR2	0	R1157C
355.351	0.008	318397	COUNTDOWN_END	n/a	n/a	n/a	n/a	-999	0	3	[0, 0, 0]	n/a	0	1	0	n/a	n/a	0.0	0	0	0	catFR2	0	R1157C
355.359	1.6	318401	ORIENT	n/a	n/a	n/a	n/a	-999	0	3	[0, 0, 0]	n/a	0	1	0	n/a	n/a	0.0	0	0	0	catFR2	0	R1157C
359.193	1.6	320317	WORD	n/a	wordpools/wordpool_categorized_EN.txt	GOOSE	Birds	1	0	3	[0, 0, 0]	n/a	0	1	0	n/a	n/a	0.0	0	0	0	catFR2	0	R1157C
361.61	1.6	321526	WORD	n/a	wordpools/wordpool_categorized_EN.txt	CROW	Birds	2	0	3	[0, 0, 0]	n/a	0	1	0	n/a	n/a	0.0	0	0	0	catFR2	0	R1157C
363.935	4.6	322688	STIM_ON	n/a	n/a	n/a	n/a	-999	0	3	[0, 0, 0]	n/a	1	1	4600	HH1	HH2	500.0	50	230	300	catFR2	0	R1157C
364.143	1.6	322792	WORD	n/a	wordpools/wordpool_categorized_EN.txt	TONGS	KitchenTools	3	1	3	[0, 0, 0]	n/a	1	1	4600	HH1	HH2	500.0	50	230	300	catFR2	0	R1157C
366.611	1.6	324026	WORD	n/a	wordpools/wordpool_categorized_EN.txt	CORKSCREW	KitchenTools	4	1	3	[0, 0, 0]	n/a	1	1	4600	HH1	HH2	500.0	50	230	300	catFR2	0	R1157C
369.094	1.6	325267	WORD	n/a	wordpools/wordpool_categorized_EN.txt	FRISBEE	Toys	5	1	3	[0, 0, 0]	n/a	0	1	0	n/a	n/a	0.0	0	0	0	catFR2	0	R1157C
371.512	1.6	326476	WORD	n/a	wordpools/wordpool_categorized_EN.txt	BALL	Toys	6	0	3	[0, 0, 0]	n/a	0	1	0	n/a	n/a	0.0	0	0	0	catFR2	0	R1157C
373.751	4.6	327596	STIM_ON	n/a	n/a	n/a	n/a	-999	0	3	[0, 0, 0]	n/a	1	1	4600	HH1	HH2	500.0	50	230	300	catFR2	0	R1157C
373.962	1.6	327701	WORD	n/a	wordpools/wordpool_categorized_EN.txt	LADLE	KitchenTools	7	1	3	[0, 0, 0]	n/a	1	1	4600	HH1	HH2	500.0	50	230	300	catFR2	0	R1157C
376.346	1.6	328893	WORD	n/a	wordpools/wordpool_categorized_EN.txt	WHISK	KitchenTools	8	0	3	[0, 0, 0]	n/a	1	1	4600	HH1	HH2	500.0	50	230	300	catFR2	0	R1157C
378.963	1.6	330201	WORD	n/a	wordpools/wordpool_categorized_EN.txt	BLUEBIRD	Birds	9	0	3	[0, 0, 0]	n/a	0	1	0	n/a	n/a	0.0	0	0	0	catFR2	0	R1157C
381.43	1.6	331435	WORD	n/a	wordpools/wordpool_categorized_EN.txt	DOVE	Birds	10	0	3	[0, 0, 0]	n/a	0	1	0	n/a	n/a	0.0	0	0	0	catFR2	0	R1157C
383.82	4.6	332630	STIM_ON	n/a	n/a	n/a	n/a	-999	0	3	[0, 0, 0]	n/a	1	1	4600	HH1	HH2	500.0	50	230	300	catFR2	0	R1157C
384.03	1.6	332735	WORD	n/a	wordpools/wordpool_categorized_EN.txt	DOLLHOUSE	Toys	11	0	3	[0, 0, 0]	n/a	1	1	4600	HH1	HH2	500.0	50	230	300	catFR2	0	R1157C
386.414	1.6	333927	WORD	n/a	wordpools/wordpool_categorized_EN.txt	FOOTBALL	Toys	12	1	3	[0, 0, 0]	n/a	1	1	4600	HH1	HH2	500.0	50	230	300	catFR2	0	R1157C
388.031	0.001	334735	DISTRACT_START	n/a	n/a	n/a	n/a	-999	0	3	[0, 0, 0]	n/a	0	1	0	n/a	n/a	0.0	0	0	0	catFR2	0	R1157C
388.032	0.015	334735	START	n/a	n/a	n/a	n/a	-999	0	3	[-999, -999, -999]	n/a	0	1	0	n/a	n/a	0.0	0	0	0	catFR2	0	R1157C
388.047	3.585	334743	PROB	3.557	n/a	n/a	n/a	-999	0	3	[3, 5, 8]	16	0	1	0	n/a	n/a	0.0	0	0	0	catFR2	0	R1157C
391.632	4.018	336535	PROB	3.996	n/a	n/a	n/a	-999	0	3	[8, 6, 2]	16	0	1	0	n/a	n/a	0.0	0	0	0	catFR2	0	R1157C
395.65	2.567	338544	PROB	2.546	n/a	n/a	n/a	-999	0	3	[1, 6, 4]	11	0	1	0	n/a	n/a	0.0	0	0	0	catFR2	0	R1157C
398.217	5.184	339828	PROB	5.163	n/a	n/a	n/a	-999	0	3	[9, 5, 3]	17	0	1	0	n/a	n/a	0.0	0	0	0	catFR2	0	R1157C
403.401	3.534	342419	PROB	3.507	n/a	n/a	n/a	-999	0	3	[6, 3, 3]	12	0	1	0	n/a	n/a	0.0	0	0	0	catFR2	0	R1157C
406.935	2.997	344186	PROB	2.997	n/a	n/a	n/a	-999	0	3	[9, 3, 2]	14	0	1	0	n/a	n/a	0.0	0	0	0	catFR2	0	R1157C
409.932	0.004	345684	STOP	n/a	n/a	n/a	n/a	-999	0	3	[-999, -999, -999]	n/a	0	1	0	n/a	n/a	0.0	0	0	0	catFR2	0	R1157C
409.936	1.149	345686	DISTRACT_END	n/a	n/a	n/a	n/a	-999	0	3	[0, 0, 0]	n/a	0	1	0	n/a	n/a	0.0	0	0	0	catFR2	0	R1157C
411.085	6.671	346261	REC_START	n/a	n/a	n/a	n/a	-999	0	3	[0, 0, 0]	n/a	0	1	0	n/a	n/a	0.0	0	0	0	catFR2	0	R1157C
417.756	2.028	349596	REC_WORD	6.671	n/a	LADLE	KitchenTools	7	1	3	[0, 0, 0]	n/a	0	1	0	n/a	n/a	0.0	0	0	0	catFR2	0	R1157C
419.784	5.853	350610	REC_WORD	8.699	n/a	TONGS	KitchenTools	3	1	3	[0, 0, 0]	n/a	0	1	0	n/a	n/a	0.0	0	0	0	catFR2	0	R1157C
425.637	5.104	353536	REC_WORD	14.552	n/a	FOOTBALL	Toys	12	1	3	[0, 0, 0]	n/a	0	1	0	n/a	n/a	0.0	0	0	0	catFR2	0	R1157C
430.741	6.285	356088	REC_WORD	19.656	n/a	FRISBEE	Toys	5	1	3	[0, 0, 0]	n/a	0	1	0	n/a	n/a	0.0	0	0	0	catFR2	0	R1157C
437.026	4.071	359230	REC_WORD	25.941	n/a	CORKSCREW	KitchenTools	4	1	3	[0, 0, 0]	n/a	0	1	0	n/a	n/a	0.0	0	0	0	catFR2	0	R1157C
441.097	1.545	361265	REC_END	n/a	n/a	n/a	n/a	-999	0	3	[0, 0, 0]	n/a	0	1	0	n/a	n/a	0.0	0	0	0	catFR2	0	R1157C
442.642	0.0	362038	TRIAL	n/a	n/a	n/a	n/a	-999	0	4	[0, 0, 0]	n/a	0	1	0	n/a	n/a	0.0	0	0	0	catFR2	0	R1157C
442.642	10.0	362038	COUNTDOWN_START	n/a	n/a	n/a	n/a	-999	0	4	[0, 0, 0]	n/a	0	1	0	n/a	n/a	0.0	0	0	0	catFR2	0	R1157C
453.07	0.006	367251	COUNTDOWN_END	n/a	n/a	n/a	n/a	-999	0	4	[0, 0, 0]	n/a	0	1	0	n/a	n/a	0.0	0	0	0	catFR2	0	R1157C
453.076	1.6	367254	ORIENT	n/a	n/a	n/a	n/a	-999	0	4	[0, 0, 0]	n/a	0	1	0	n/a	n/a	0.0	0	0	0	catFR2	0	R1157C
456.473	4.6	368953	STIM_ON	n/a	n/a	n/a	n/a	-999	0	4	[0, 0, 0]	n/a	1	1	4600	HH1	HH2	500.0	50	230	300	catFR2	0	R1157C
456.678	1.6	369055	WORD	n/a	wordpools/wordpool_categorized_EN.txt	CALCULATOR	Electronics	1	1	4	[0, 0, 0]	n/a	1	1	4600	HH1	HH2	500.0	50	230	300	catFR2	0	R1157C
459.278	1.6	370355	WORD	n/a	wordpools/wordpool_categorized_EN.txt	STEREO	Electronics	2	1	4	[0, 0, 0]	n/a	1	1	4600	HH1	HH2	500.0	50	230	300	catFR2	0	R1157C
461.712	1.6	371572	WORD	n/a	wordpools/wordpool_categorized_EN.txt	TABLE	Furniture	3	0	4	[0, 0, 0]	n/a	0	1	0	n/a	n/a	0.0	0	0	0	catFR2	0	R1157C
464.279	1.6	372855	WORD	n/a	wordpools/wordpool_categorized_EN.txt	CHAIR	Furniture	4	0	4	[0, 0, 0]	n/a	0	1	0	n/a	n/a	0.0	0	0	0	catFR2	0	R1157C
466.584	4.6	374008	STIM_ON	n/a	n/a	n/a	n/a	-999	0	4	[0, 0, 0]	n/a	1	1	4600	HH1	HH2	500.0	50	230	300	catFR2	0	R1157C
466.796	1.6	374114	WORD	n/a	wordpools/wordpool_categorized_EN.txt	BUS	Vehicles	5	0	4	[0, 0, 0]	n/a	1	1	4600	HH1	HH2	500.0	50	230	300	catFR2	0	R1157C
469.197	1.6	375314	WORD	n/a	wordpools/wordpool_categorized_EN.txt	SCOOTER	Vehicles	6	0	4	[0, 0, 0]	n/a	1	1	4600	HH1	HH2	500.0	50	230	300	catFR2	0	R1157C
471.58	1.6	376506	WORD	n/a	wordpools/wordpool_categorized_EN.txt	RADIO	Electronics	7	0	4	[0, 0, 0]	n/a	0	1	0	n/a	n/a	0.0	0	0	0	catFR2	0	R1157C
474.063	1.6	377747	WORD	n/a	wordpools/wordpool_categorized_EN.txt	TELEVISION	Electronics	8	0	4	[0, 0, 0]	n/a	0	1	0	n/a	n/a	0.0	0	0	0	catFR2	0	R1157C
476.386	4.6	378908	STIM_ON	n/a	n/a	n/a	n/a	-999	0	4	[0, 0, 0]	n/a	1	1	4600	HH1	HH2	500.0	50	230	300	catFR2	0	R1157C
476.598	1.6	379014	WORD	n/a	wordpools/wordpool_categorized_EN.txt	VAN	Vehicles	9	0	4	[0, 0, 0]	n/a	1	1	4600	HH1	HH2	500.0	50	230	300	catFR2	0	R1157C
479.148	1.6	380289	WORD	n/a	wordpools/wordpool_categorized_EN.txt	BOAT	Vehicles	10	0	4	[0, 0, 0]	n/a	1	1	4600	HH1	HH2	500.0	50	230	300	catFR2	0	R1157C
481.766	1.6	381598	WORD	n/a	wordpools/wordpool_categorized_EN.txt	BED	Furniture	11	0	4	[0, 0, 0]	n/a	0	1	0	n/a	n/a	0.0	0	0	0	catFR2	0	R1157C
484.233	1.6	382831	WORD	n/a	wordpools/wordpool_categorized_EN.txt	SHELF	Furniture	12	0	4	[0, 0, 0]	n/a	0	1	0	n/a	n/a	0.0	0	0	0	catFR2	0	R1157C
485.85	0.001	383640	DISTRACT_START	n/a	n/a	n/a	n/a	-999	0	4	[0, 0, 0]	n/a	0	1	0	n/a	n/a	0.0	0	0	0	catFR2	0	R1157C
485.851	0.016	383640	START	n/a	n/a	n/a	n/a	-999	0	4	[-999, -999, -999]	n/a	0	1	0	n/a	n/a	0.0	0	0	0	catFR2	0	R1157C
485.867	3.967	383648	PROB	3.937	n/a	n/a	n/a	-999	0	4	[6, 6, 7]	19	0	1	0	n/a	n/a	0.0	0	0	0	catFR2	0	R1157C
489.834	5.134	385632	PROB	5.106	n/a	n/a	n/a	-999	0	4	[9, 6, 4]	19	0	1	0	n/a	n/a	0.0	0	0	0	catFR2	0	R1157C
494.968	2.484	388198	PROB	2.46	n/a	n/a	n/a	-999	0	4	[2, 5, 1]	8	0	1	0	n/a	n/a	0.0	0	0	0	catFR2	0	R1157C
497.452	2.666	389440	PROB	2.631	n/a	n/a	n/a	-999	0	4	[8, 4, 9]	21	0	1	0	n/a	n/a	0.0	0	0	0	catFR2	0	R1157C
500.118	3.001	390773	PROB	2.973	n/a	n/a	n/a	-999	0	4	[4, 3, 8]	20	0	1	0	n/a	n/a	0.0	0	0	0	catFR2	0	R1157C
503.119	5.004	392274	PROB	5.004	n/a	n/a	n/a	-999	0	4	[1, 4, 8]	13	0	1	0	n/a	n/a	0.0	0	0	0	catFR2	0	R1157C
508.123	0.013	394775	STOP	n/a	n/a	n/a	n/a	-999	0	4	[-999, -999, -999]	n/a	0	1	0	n/a	n/a	0.0	0	0	0	catFR2	0	R1157C
508.136	1.202	394782	DISTRACT_END	n/a	n/a	n/a	n/a	-999	0	4	[0, 0, 0]	n/a	0	1	0	n/a	n/a	0.0	0	0	0	catFR2	0	R1157C
509.338	1.771	395383	REC_START	n/a	n/a	n/a	n/a	-999	0	4	[0, 0, 0]	n/a	0	1	0	n/a	n/a	0.0	0	0	0	catFR2	0	R1157C
511.109	5.083	396268	REC_WORD	1.771	n/a	CALCULATOR	Electronics	1	1	4	[0, 0, 0]	n/a	0	1	0	n/a	n/a	0.0	0	0	0	catFR2	0	R1157C
516.192	23.161	398809	REC_WORD	6.854	n/a	STEREO	Electronics	2	1	4	[0, 0, 0]	n/a	0	1	0	n/a	n/a	0.0	0	0	0	catFR2	0	R1157C
539.353	1.557	410389	REC_END	n/a	n/a	n/a	n/a	-999	0	4	[0, 0, 0]	n/a	0	1	0	n/a	n/a	0.0	0	0	0	catFR2	0	R1157C
540.91	0.0	411167	TRIAL	n/a	n/a	n/a	n/a	-999	0	5	[0, 0, 0]	n/a	0	1	0	n/a	n/a	0.0	0	0	0	catFR2	0	R1157C
540.91	10.0	411167	COUNTDOWN_START	n/a	n/a	n/a	n/a	-999	0	5	[0, 0, 0]	n/a	0	1	0	n/a	n/a	0.0	0	0	0	catFR2	0	R1157C
551.338	0.008	416381	COUNTDOWN_END	n/a	n/a	n/a	n/a	-999	0	5	[0, 0, 0]	n/a	0	1	0	n/a	n/a	0.0	0	0	0	catFR2	0	R1157C
551.346	1.6	416385	ORIENT	n/a	n/a	n/a	n/a	-999	0	5	[0, 0, 0]	n/a	0	1	0	n/a	n/a	0.0	0	0	0	catFR2	0	R1157C
555.28	1.6	418352	WORD	n/a	wordpools/wordpool_categorized_EN.txt	CRICKET	Insects	1	1	5	[0, 0, 0]	n/a	0	1	0	n/a	n/a	0.0	0	0	0	catFR2	0	R1157C
557.847	1.6	419635	WORD	n/a	wordpools/wordpool_categorized_EN.txt	BEETLE	Insects	2	1	5	[0, 0, 0]	n/a	0	1	0	n/a	n/a	0.0	0	0	0	catFR2	0	R1157C
560.259	4.6	420841	STIM_ON	n/a	n/a	n/a	n/a	-999	0	5	[0, 0, 0]	n/a	1	1	4600	HH1	HH2	500.0	50	230	300	catFR2	0	R1157C
560.464	1.6	420943	WORD	n/a	wordpools/wordpool_categorized_EN.txt	TULIP	Flowers	3	1	5	[0, 0, 0]	n/a	1	1	4600	HH1	HH2	500.0	50	230	300	catFR2	0	R1157C
562.997	1.6	422210	WORD	n/a	wordpools/wordpool_categorized_EN.txt	LILAC	Flowers	4	0	5	[0, 0, 0]	n/a	1	1	4600	HH1	HH2	500.0	50	230	300	catFR2	0	R1157C
565.481	1.6	423452	WORD	n/a	wordpools/wordpool_categorized_EN.txt	MARBLES	Toys	5	0	5	[0, 0, 0]	n/a	0	1	0	n/a	n/a	0.0	0	0	0	catFR2	0	R1157C
568.048	1.6	424735	WORD	n/a	wordpools/wordpool_categorized_EN.txt	BASEBALL	Toys	6	1	5	[0, 0, 0]	n/a	0	1	0	n/a	n/a	0.0	0	0	0	catFR2	0	R1157C
570.409	4.6	425915	STIM_ON	n/a	n/a	n/a	n/a	-999	0	5	[0, 0, 0]	n/a	1	1	4600	HH1	HH2	500.0	50	230	300	catFR2	0	R1157C
570.616	1.6	426019	WORD	n/a	wordpools/wordpool_categorized_EN.txt	FLY	Insects	7	1	5	[0, 0, 0]	n/a	1	1	4600	HH1	HH2	500.0	50	230	300	catFR2	0	R1157C
573.2	1.6	427311	WORD	n/a	wordpools/wordpool_categorized_EN.txt	ROACH	Insects	8	0	5	[0, 0, 0]	n/a	1	1	4600	HH1	HH2	500.0	50	230	300	catFR2	0	R1157C
575.833	1.6	428627	WORD	n/a	wordpools/wordpool_categorized_EN.txt	DOLL	Toys	9	0	5	[0, 0, 0]	n/a	0	1	0	n/a	n/a	0.0	0	0	0	catFR2	0	R1157C
578.317	1.6	429869	WORD	n/a	wordpools/wordpool_categorized_EN.txt	BASKETBALL	Toys	10	1	5	[0, 0, 0]	n/a	0	1	0	n/a	n/a	0.0	0	0	0	catFR2	0	R1157C
580.667	4.6	431044	STIM_ON	n/a	n/a	n/a	n/a	-999	0	5	[0, 0, 0]	n/a	1	1	4600	HH1	HH2	500.0	50	230	300	catFR2	0	R1157C
580.884	1.6	431152	WORD	n/a	wordpools/wordpool_categorized_EN.txt	MARIGOLD	Flowers	11	0	5	[0, 0, 0]	n/a	1	1	4600	HH1	HH2	500.0	50	230	300	catFR2	0	R1157C
583.402	1.6	432411	WORD	n/a	wordpools/wordpool_categorized_EN.txt	VIOLET	Flowers	12	1	5	[0, 0, 0]	n/a	1	1	4600	HH1	HH2	500.0	50	230	300	catFR2	0	R1157C
585.017	0.002	433219	DISTRACT_START	n/a	n/a	n/a	n/a	-999	0	5	[0, 0, 0]	n/a	0	1	0	n/a	n/a	0.0	0	0	0	catFR2	0	R1157C
585.019	0.015	433220	START	n/a	n/a	n/a	n/a	-999	0	5	[-999, -999, -999]	n/a	0	1	0	n/a	n/a	0.0	0	0	0	catFR2	0	R1157C
585.034	3.185	433227	PROB	3.162	n/a	n/a	n/a	-999	0	5	[1, 5, 2]	8	0	1	0	n/a	n/a	0.0	0	0	0	catFR2	0	R1157C
588.219	2.617	434820	PROB	2.593	n/a	n/a	n/a	-999	0	5	[5, 2, 4]	11	0	1	0	n/a	n/a	0.0	0	0	0	catFR2	0	R1157C
590.836	1.984	436128	PROB	1.96	n/a	n/a	n/a	-999	0	5	[7, 7, 7]	21	0	1	0	n/a	n/a	0.0	0	0	0	catFR2	0	R1157C
592.82	3.734	437120	PROB	3.704	n/a	n/a	n/a	-999	0	5	[9, 8, 4]	21	0	1	0	n/a	n/a	0.0	0	0	0	catFR2	0	R1157C
596.554	3.717	438987	PROB	3.682	n/a	n/a	n/a	-999	0	5	[3, 4, 5]	12	0	1	0	n/a	n/a	0.0	0	0	0	catFR2	0	R1157C
600.271	5.045	440845	PROB	5.045	n/a	n/a	n/a	-999	0	5	[6, 9, 8]	23	0	1	0	n/a	n/a	0.0	0	0	0	catFR2	0	R1157C
605.316	0.006	443367	STOP	n/a	n/a	n/a	n/a	-999	0	5	[-999, -999, -999]	n/a	0	1	0	n/a	n/a	0.0	0	0	0	catFR2	0	R1157C
605.322	1.118	443370	DISTRACT_END	n/a	n/a	n/a	n/a	-999	0	5	[0, 0, 0]	n/a	0	1	0	n/a	n/a	0.0	0	0	0	catFR2	0	R1157C
606.44	0.636	443929	REC_START	n/a	n/a	n/a	n/a	-999	0	5	[0, 0, 0]	n/a	0	1	0	n/a	n/a	0.0	0	0	0	catFR2	0	R1157C
607.076	0.735	444247	REC_WORD	0.636	n/a	BASKETBALL	Toys	10	1	5	[0, 0, 0]	n/a	0	1	0	n/a	n/a	0.0	0	0	0	catFR2	0	R1157C
607.811	1.665	444615	REC_WORD	1.371	n/a	BASEBALL	Toys	6	1	5	[0, 0, 0]	n/a	0	1	0	n/a	n/a	0.0	0	0	0	catFR2	0	R1157C
609.476	1.071	445447	REC_WORD	3.036	n/a	CRICKET	Insects	1	1	5	[0, 0, 0]	n/a	0	1	0	n/a	n/a	0.0	0	0	0	catFR2	0	R1157C
610.547	5.435	445983	REC_WORD	4.107	n/a	FLY	Insects	7	1	5	[0, 0, 0]	n/a	0	1	0	n/a	n/a	0.0	0	0	0	catFR2	0	R1157C
615.982	9.867	448700	REC_WORD	9.542	n/a	BEETLE	Insects	2	1	5	[0, 0, 0]	n/a	0	1	0	n/a	n/a	0.0	0	0	0	catFR2	0	R1157C
625.849	7.171	453633	REC_WORD	19.409	n/a	VIOLET	Flowers	12	1	5	[0, 0, 0]	n/a	0	1	0	n/a	n/a	0.0	0	0	0	catFR2	0	R1157C
633.02	3.431	457218	REC_WORD	26.58	n/a	TULIP	Flowers	3	1	5	[0, 0, 0]	n/a	0	1	0	n/a	n/a	0.0	0	0	0	catFR2	0	R1157C
636.451	1.411	458933	REC_END	n/a	n/a	n/a	n/a	-999	0	5	[0, 0, 0]	n/a	0	1	0	n/a	n/a	0.0	0	0	0	catFR2	0	R1157C
637.862	0.0	459639	TRIAL	n/a	n/a	n/a	n/a	-999	0	6	[0, 0, 0]	n/a	0	1	0	n/a	n/a	0.0	0	0	0	catFR2	0	R1157C
637.862	10.0	459639	COUNTDOWN_START	n/a	n/a	n/a	n/a	-999	0	6	[0, 0, 0]	n/a	0	1	0	n/a	n/a	0.0	0	0	0	catFR2	0	R1157C
648.29	0.007	464852	COUNTDOWN_END	n/a	n/a	n/a	n/a	-999	0	6	[0, 0, 0]	n/a	0	1	0	n/a	n/a	0.0	0	0	0	catFR2	0	R1157C
648.297	1.6	464856	ORIENT	n/a	n/a	n/a	n/a	-999	0	6	[0, 0, 0]	n/a	0	1	0	n/a	n/a	0.0	0	0	0	catFR2	0	R1157C
651.698	1.6	466556	WORD	n/a	wordpools/wordpool_categorized_EN.txt	CARNATION	Flowers	1	0	6	[0, 0, 0]	n/a	0	1	0	n/a	n/a	0.0	0	0	0	catFR2	0	R1157C
654.232	1.6	467823	WORD	n/a	wordpools/wordpool_categorized_EN.txt	ROSE	Flowers	2	1	6	[0, 0, 0]	n/a	0	1	0	n/a	n/a	0.0	0	0	0	catFR2	0	R1157C
656.434	4.6	468924	STIM_ON	n/a	n/a	n/a	n/a	-999	0	6	[0, 0, 0]	n/a	1	1	4600	HH1	HH2	500.0	50	230	300	catFR2	0	R1157C
656.649	1.6	469031	WORD	n/a	wordpools/wordpool_categorized_EN.txt	JELLYFISH	OceanAnimals	3	1	6	[0, 0, 0]	n/a	1	1	4600	HH1	HH2	500.0	50	230	300	catFR2	0	R1157C
659.216	1.6	470315	WORD	n/a	wordpools/wordpool_categorized_EN.txt	PLANKTON	OceanAnimals	4	1	6	[0, 0, 0]	n/a	1	1	4600	HH1	HH2	500.0	50	230	300	catFR2	0	R1157C
661.783	1.6	471598	WORD	n/a	wordpools/wordpool_categorized_EN.txt	LIME	Fruit	5	0	6	[0, 0, 0]	n/a	0	1	0	n/a	n/a	0.0	0	0	0	catFR2	0	R1157C
664.267	1.6	472840	WORD	n/a	wordpools/wordpool_categorized_EN.txt	PEAR	Fruit	6	1	6	[0, 0, 0]	n/a	0	1	0	n/a	n/a	0.0	0	0	0	catFR2	0	R1157C
666.47	4.6	473941	STIM_ON	n/a	n/a	n/a	n/a	-999	0	6	[0, 0, 0]	n/a	1	1	4600	HH1	HH2	500.0	50	230	300	catFR2	0	R1157C
666.684	1.6	474048	WORD	n/a	wordpools/wordpool_categorized_EN.txt	SQUID	OceanAnimals	7	1	6	[0, 0, 0]	n/a	1	1	4600	HH1	HH2	500.0	50	230	300	catFR2	0	R1157C
669.301	1.6	475357	WORD	n/a	wordpools/wordpool_categorized_EN.txt	TURTLE	OceanAnimals	8	0	6	[0, 0, 0]	n/a	1	1	4600	HH1	HH2	500.0	50	230	300	catFR2	0	R1157C
671.802	1.6	476607	WORD	n/a	wordpools/wordpool_categorized_EN.txt	DAISY	Flowers	9	0	6	[0, 0, 0]	n/a	0	1	0	n/a	n/a	0.0	0	0	0	catFR2	0	R1157C
674.319	1.6	477866	WORD	n/a	wordpools/wordpool_categorized_EN.txt	PETUNIA	Flowers	10	0	6	[0, 0, 0]	n/a	0	1	0	n/a	n/a	0.0	0	0	0	catFR2	0	R1157C
676.497	4.6	478954	STIM_ON	n/a	n/a	n/a	n/a	-999	0	6	[0, 0, 0]	n/a	1	1	4600	HH1	HH2	500.0	50	230	300	catFR2	0	R1157C
676.702	1.6	479057	WORD	n/a	wordpools/wordpool_categorized_EN.txt	CHERRY	Fruit	11	1	6	[0, 0, 0]	n/a	1	1	4600	HH1	HH2	500.0	50	230	300	catFR2	0	R1157C
679.303	1.6	480357	WORD	n/a	wordpools/wordpool_categorized_EN.txt	PEACH	Fruit	12	0	6	[0, 0, 0]	n/a	1	1	4600	HH1	HH2	500.0	50	230	300	catFR2	0	R1157C
680.92	0.001	481166	DISTRACT_START	n/a	n/a	n/a	n/a	-999	0	6	[0, 0, 0]	n/a	0	1	0	n/a	n/a	0.0	0	0	0	catFR2	0	R1157C
680.921	0.016	481166	START	n/a	n/a	n/a	n/a	-999	0	6	[-999, -999, -999]	n/a	0	1	0	n/a	n/a	0.0	0	0	0	catFR2	0	R1157C
680.937	4.667	481174	PROB	4.643	n/a	n/a	n/a	-999	0	6	[6, 4, 3]	13	0	1	0	n/a	n/a	0.0	0	0	0	catFR2	0	R1157C
685.604	2.317	483508	PROB	2.296	n/a	n/a	n/a	-999	0	6	[6, 4, 2]	12	0	1	0	n/a	n/a	0.0	0	0	0	catFR2	0	R1157C
687.921	2.984	484666	PROB	2.955	n/a	n/a	n/a	-999	0	6	[2, 5, 6]	13	0	1	0	n/a	n/a	0.0	0	0	0	catFR2	0	R1157C
690.905	2.784	486158	PROB	2.755	n/a	n/a	n/a	-999	0	6	[4, 5, 2]	11	0	1	0	n/a	n/a	0.0	0	0	0	catFR2	0	R1157C
693.689	4.333	487550	PROB	4.299	n/a	n/a	n/a	-999	0	6	[9, 4, 6]	19	0	1	0	n/a	n/a	0.0	0	0	0	catFR2	0	R1157C
698.022	4.157	489716	PROB	4.157	n/a	n/a	n/a	-999	0	6	[4, 2, 9]	15	0	1	0	n/a	n/a	0.0	0	0	0	catFR2	0	R1157C
702.179	0.011	491794	STOP	n/a	n/a	n/a	n/a	-999	0	6	[-999, -999, -999]	n/a	0	1	0	n/a	n/a	0.0	0	0	0	catFR2	0	R1157C
702.19	1.218	491800	DISTRACT_END	n/a	n/a	n/a	n/a	-999	0	6	[0, 0, 0]	n/a	0	1	0	n/a	n/a	0.0	0	0	0	catFR2	0	R1157C
703.408	5.478	492409	REC_START	n/a	n/a	n/a	n/a	-999	0	6	[0, 0, 0]	n/a	0	1	0	n/a	n/a	0.0	0	0	0	catFR2	0	R1157C
708.886	1.15	495147	REC_WORD	5.478	n/a	SQUID	OceanAnimals	7	1	6	[0, 0, 0]	n/a	0	1	0	n/a	n/a	0.0	0	0	0	catFR2	0	R1157C
710.036	2.752	495722	REC_WORD	6.628	n/a	ROSE	Flowers	2	1	6	[0, 0, 0]	n/a	0	1	0	n/a	n/a	0.0	0	0	0	catFR2	0	R1157C
712.788	5.17	497098	REC_WORD	9.38	n/a	PLANKTON	OceanAnimals	4	1	6	[0, 0, 0]	n/a	0	1	0	n/a	n/a	0.0	0	0	0	catFR2	0	R1157C
717.958	11.112	499683	REC_WORD	14.55	n/a	JELLYFISH	OceanAnimals	3	1	6	[0, 0, 0]	n/a	0	1	0	n/a	n/a	0.0	0	0	0	catFR2	0	R1157C
729.07	1.444	505238	REC_WORD	25.662	n/a	PEAR	Fruit	6	1	6	[0, 0, 0]	n/a	0	1	0	n/a	n/a	0.0	0	0	0	catFR2	0	R1157C
730.514	2.905	505960	REC_WORD	27.106	n/a	CHERRY	Fruit	11	1	6	[0, 0, 0]	n/a	0	1	0	n/a	n/a	0.0	0	0	0	catFR2	0	R1157C
733.419	1.378	507413	REC_END	n/a	n/a	n/a	n/a	-999	0	6	[0, 0, 0]	n/a	0	1	0	n/a	n/a	0.0	0	0	0	catFR2	0	R1157C
734.797	0.0	508102	TRIAL	n/a	n/a	n/a	n/a	-999	0	7	[0, 0, 0]	n/a	0	1	0	n/a	n/a	0.0	0	0	0	catFR2	0	R1157C
734.797	10.0	508102	COUNTDOWN_START	n/a	n/a	n/a	n/a	-999	0	7	[0, 0, 0]	n/a	0	1	0	n/a	n/a	0.0	0	0	0	catFR2	0	R1157C
745.225	0.007	513315	COUNTDOWN_END	n/a	n/a	n/a	n/a	-999	0	7	[0, 0, 0]	n/a	0	1	0	n/a	n/a	0.0	0	0	0	catFR2	0	R1157C
745.232	1.6	513319	ORIENT	n/a	n/a	n/a	n/a	-999	0	7	[0, 0, 0]	n/a	0	1	0	n/a	n/a	0.0	0	0	0	catFR2	0	R1157C
748.9	4.6	515153	STIM_ON	n/a	n/a	n/a	n/a	-999	0	7	[0, 0, 0]	n/a	1	1	4600	HH1	HH2	500.0	50	230	300	catFR2	0	R1157C
749.115	1.6	515260	WORD	n/a	wordpools/wordpool_categorized_EN.txt	LIGHTNING	Weather	1	1	7	[0, 0, 0]	n/a	1	1	4600	HH1	HH2	500.0	50	230	300	catFR2	0	R1157C
751.716	1.6	516560	WORD	n/a	wordpools/wordpool_categorized_EN.txt	DRIZZLE	Weather	2	1	7	[0, 0, 0]	n/a	1	1	4600	HH1	HH2	500.0	50	230	300	catFR2	0	R1157C
754.234	1.6	517819	WORD	n/a	wordpools/wordpool_categorized_EN.txt	TOASTER	Appliances	3	0	7	[0, 0, 0]	n/a	0	1	0	n/a	n/a	0.0	0	0	0	catFR2	0	R1157C
756.701	1.6	519053	WORD	n/a	wordpools/wordpool_categorized_EN.txt	VACUUM	Appliances	4	0	7	[0, 0, 0]	n/a	0	1	0	n/a	n/a	0.0	0	0	0	catFR2	0	R1157C
759.08	4.6	520242	STIM_ON	n/a	n/a	n/a	n/a	-999	0	7	[0, 0, 0]	n/a	1	1	4600	HH1	HH2	500.0	50	230	300	catFR2	0	R1157C
759.285	1.6	520345	WORD	n/a	wordpools/wordpool_categorized_EN.txt	UNDERWEAR	Clothing	5	1	7	[0, 0, 0]	n/a	1	1	4600	HH1	HH2	500.0	50	230	300	catFR2	0	R1157C
761.735	1.6	521569	WORD	n/a	wordpools/wordpool_categorized_EN.txt	SHORTS	Clothing	6	0	7	[0, 0, 0]	n/a	1	1	4600	HH1	HH2	500.0	50	230	300	catFR2	0	R1157C
764.151	1.6	522777	WORD	n/a	wordpools/wordpool_categorized_EN.txt	RAIN	Weather	7	1	7	[0, 0, 0]	n/a	0	1	0	n/a	n/a	0.0	0	0	0	catFR2	0	R1157C
766.619	1.6	524011	WORD	n/a	wordpools/wordpool_categorized_EN.txt	SNOW	Weather	8	1	7	[0, 0, 0]	n/a	0	1	0	n/a	n/a	0.0	0	0	0	catFR2	0	R1157C
768.802	4.6	525103	STIM_ON	n/a	n/a	n/a	n/a	-999	0	7	[0, 0, 0]	n/a	1	1	4600	HH1	HH2	500.0	50	230	300	catFR2	0	R1157C
769.019	1.6	525211	WORD	n/a	wordpools/wordpool_categorized_EN.txt	DRESS	Clothing	9	0	7	[0, 0, 0]	n/a	1	1	4600	HH1	HH2	500.0	50	230	300	catFR2	0	R1157C
771.604	1.6	526503	WORD	n/a	wordpools/wordpool_categorized_EN.txt	BLOUSE	Clothing	10	1	7	[0, 0, 0]	n/a	1	1	4600	HH1	HH2	500.0	50	230	300	catFR2	0	R1157C
774.187	1.6	527795	WORD	n/a	wordpools/wordpool_categorized_EN.txt	IRON	Appliances	11	0	7	[0, 0, 0]	n/a	0	1	0	n/a	n/a	0.0	0	0	0	catFR2	0	R1157C
776.721	1.6	529062	WORD	n/a	wordpools/wordpool_categorized_EN.txt	OVEN	Appliances	12	0	7	[0, 0, 0]	n/a	0	1	0	n/a	n/a	0.0	0	0	0	catFR2	0	R1157C
778.338	0.001	529870	DISTRACT_START	n/a	n/a	n/a	n/a	-999	0	7	[0, 0, 0]	n/a	0	1	0	n/a	n/a	0.0	0	0	0	catFR2	0	R1157C
778.339	0.016	529871	START	n/a	n/a	n/a	n/a	-999	0	7	[-999, -999, -999]	n/a	0	1	0	n/a	n/a	0.0	0	0	0	catFR2	0	R1157C
778.355	2.683	529879	PROB	2.648	n/a	n/a	n/a	-999	0	7	[1, 7, 2]	10	0	1	0	n/a	n/a	0.0	0	0	0	catFR2	0	R1157C
781.038	3.435	531220	PROB	3.406	n/a	n/a	n/a	-999	0	7	[2, 3, 7]	12	0	1	0	n/a	n/a	0.0	0	0	0	catFR2	0	R1157C
784.473	2.933	532937	PROB	2.899	n/a	n/a	n/a	-999	0	7	[8, 8, 5]	21	0	1	0	n/a	n/a	0.0	0	0	0	catFR2	0	R1157C
787.406	2.534	534404	PROB	2.51	n/a	n/a	n/a	-999	0	7	[3, 4, 1]	8	0	1	0	n/a	n/a	0.0	0	0	0	catFR2	0	R1157C
789.94	3.551	535671	PROB	3.528	n/a	n/a	n/a	-999	0	7	[4, 3, 1]	8	0	1	0	n/a	n/a	0.0	0	0	0	catFR2	0	R1157C
793.491	2.867	537446	PROB	2.841	n/a	n/a	n/a	-999	0	7	[3, 2, 4]	9	0	1	0	n/a	n/a	0.0	0	0	0	catFR2	0	R1157C
796.358	2.894	538879	PROB	2.894	n/a	n/a	n/a	-999	0	7	[5, 8, 8]	21	0	1	0	n/a	n/a	0.0	0	0	0	catFR2	0	R1157C
799.252	0.007	540326	STOP	n/a	n/a	n/a	n/a	-999	0	7	[-999, -999, -999]	n/a	0	1	0	n/a	n/a	0.0	0	0	0	catFR2	0	R1157C
799.259	1.201	540330	DISTRACT_END	n/a	n/a	n/a	n/a	-999	0	7	[0, 0, 0]	n/a	0	1	0	n/a	n/a	0.0	0	0	0	catFR2	0	R1157C
800.46	0.791	540930	REC_START	n/a	n/a	n/a	n/a	-999	0	7	[0, 0, 0]	n/a	0	1	0	n/a	n/a	0.0	0	0	0	catFR2	0	R1157C
801.251	0.543	541326	REC_WORD	0.791	n/a	LIGHTNING	Weather	1	1	7	[0, 0, 0]	n/a	0	1	0	n/a	n/a	0.0	0	0	0	catFR2	0	R1157C
801.794	0.904	541597	REC_WORD	1.334	n/a	DRIZZLE	Weather	2	1	7	[0, 0, 0]	n/a	0	1	0	n/a	n/a	0.0	0	0	0	catFR2	0	R1157C
802.698	1.682	542049	REC_WORD	2.238	n/a	SNOW	Weather	8	1	7	[0, 0, 0]	n/a	0	1	0	n/a	n/a	0.0	0	0	0	catFR2	0	R1157C
804.38	6.822	542890	REC_WORD	3.92	n/a	RAIN	Weather	7	1	7	[0, 0, 0]	n/a	0	1	0	n/a	n/a	0.0	0	0	0	catFR2	0	R1157C
811.202	1.13	546301	REC_WORD	10.742	n/a	UNDERWEAR	Clothing	5	1	7	[0, 0, 0]	n/a	0	1	0	n/a	n/a	0.0	0	0	0	catFR2	0	R1157C
812.332	18.139	546866	REC_WORD	11.872	n/a	BLOUSE	Clothing	10	1	7	[0, 0, 0]	n/a	0	1	0	n/a	n/a	0.0	0	0	0	catFR2	0	R1157C
830.471	1.559	555934	REC_END	n/a	n/a	n/a	n/a	-999	0	7	[0, 0, 0]	n/a	0	1	0	n/a	n/a	0.0	0	0	0	catFR2	0	R1157C
832.03	10.0	556714	COUNTDOWN_START	n/a	n/a	n/a	n/a	-999	0	8	[0, 0, 0]	n/a	0	1	0	n/a	n/a	0.0	0	0	0	catFR2	0	R1157C
832.031	10.427	556714	TRIAL	n/a	n/a	n/a	n/a	-999	0	8	[0, 0, 0]	n/a	0	1	0	n/a	n/a	0.0	0	0	0	catFR2	0	R1157C
842.458	0.009	561927	COUNTDOWN_END	n/a	n/a	n/a	n/a	-999	0	8	[0, 0, 0]	n/a	0	1	0	n/a	n/a	0.0	0	0	0	catFR2	0	R1157C
842.467	1.6	561932	ORIENT	n/a	n/a	n/a	n/a	-999	0	8	[0, 0, 0]	n/a	0	1	0	n/a	n/a	0.0	0	0	0	catFR2	0	R1157C
846.037	4.6	563716	STIM_ON	n/a	n/a	n/a	n/a	-999	0	8	[0, 0, 0]	n/a	1	1	4600	HH1	HH2	500.0	50	230	300	catFR2	0	R1157C
846.251	1.6	563823	WORD	n/a	wordpools/wordpool_categorized_EN.txt	RUM	Beverages	1	0	8	[0, 0, 0]	n/a	1	1	4600	HH1	HH2	500.0	50	230	300	catFR2	0	R1157C
848.701	1.6	565048	WORD	n/a	wordpools/wordpool_categorized_EN.txt	MILK	Beverages	2	0	8	[0, 0, 0]	n/a	1	1	4600	HH1	HH2	500.0	50	230	300	catFR2	0	R1157C
851.101	1.6	566248	WORD	n/a	wordpools/wordpool_categorized_EN.txt	CELERY	Vegetables	3	1	8	[0, 0, 0]	n/a	0	1	0	n/a	n/a	0.0	0	0	0	catFR2	0	R1157C
853.686	1.6	567541	WORD	n/a	wordpools/wordpool_categorized_EN.txt	CABBAGE	Vegetables	4	1	8	[0, 0, 0]	n/a	0	1	0	n/a	n/a	0.0	0	0	0	catFR2	0	R1157C
855.892	4.6	568644	STIM_ON	n/a	n/a	n/a	n/a	-999	0	8	[0, 0, 0]	n/a	1	1	4600	HH1	HH2	500.0	50	230	300	catFR2	0	R1157C
856.102	1.6	568749	WORD	n/a	wordpools/wordpool_categorized_EN.txt	SHRIMP	OceanAnimals	5	0	8	[0, 0, 0]	n/a	1	1	4600	HH1	HH2	500.0	50	230	300	catFR2	0	R1157C
858.47	1.6	569932	WORD	n/a	wordpools/wordpool_categorized_EN.txt	WHALE	OceanAnimals	6	1	8	[0, 0, 0]	n/a	1	1	4600	HH1	HH2	500.0	50	230	300	catFR2	0	R1157C
860.937	1.6	571166	WORD	n/a	wordpools/wordpool_categorized_EN.txt	CAULIFLOWER	Vegetables	7	0	8	[0, 0, 0]	n/a	0	1	0	n/a	n/a	0.0	0	0	0	catFR2	0	R1157C
863.487	1.6	572441	WORD	n/a	wordpools/wordpool_categorized_EN.txt	CORN	Vegetables	8	0	8	[0, 0, 0]	n/a	0	1	0	n/a	n/a	0.0	0	0	0	catFR2	0	R1157C
865.832	4.6	573613	STIM_ON	n/a	n/a	n/a	n/a	-999	0	8	[0, 0, 0]	n/a	1	1	4600	HH1	HH2	500.0	50	230	300	catFR2	0	R1157C
866.037	1.6	573716	WORD	n/a	wordpools/wordpool_categorized_EN.txt	LEMONADE	Beverages	9	1	8	[0, 0, 0]	n/a	1	1	4600	HH1	HH2	500.0	50	230	300	catFR2	0	R1157C
868.505	1.6	574949	WORD	n/a	wordpools/wordpool_categorized_EN.txt	SODA	Beverages	10	1	8	[0, 0, 0]	n/a	1	1	4600	HH1	HH2	500.0	50	230	300	catFR2	0	R1157C
871.021	1.6	576207	WORD	n/a	wordpools/wordpool_categorized_EN.txt	FISH	OceanAnimals	11	1	8	[0, 0, 0]	n/a	0	1	0	n/a	n/a	0.0	0	0	0	catFR2	0	R1157C
873.456	1.6	577425	WORD	n/a	wordpools/wordpool_categorized_EN.txt	DOLPHIN	OceanAnimals	12	0	8	[0, 0, 0]	n/a	0	1	0	n/a	n/a	0.0	0	0	0	catFR2	0	R1157C
875.072	0.001	578233	DISTRACT_START	n/a	n/a	n/a	n/a	-999	0	8	[0, 0, 0]	n/a	0	1	0	n/a	n/a	0.0	0	0	0	catFR2	0	R1157C
875.073	0.016	578233	START	n/a	n/a	n/a	n/a	-999	0	8	[-999, -999, -999]	n/a	0	1	0	n/a	n/a	0.0	0	0	0	catFR2	0	R1157C
875.089	3.401	578241	PROB	3.371	n/a	n/a	n/a	-999	0	8	[3, 2, 5]	10	0	1	0	n/a	n/a	0.0	0	0	0	catFR2	0	R1157C
878.49	2.65	579941	PROB	2.625	n/a	n/a	n/a	-999	0	8	[7, 1, 8]	16	0	1	0	n/a	n/a	0.0	0	0	0	catFR2	0	R1157C
881.14	3.017	581266	PROB	2.983	n/a	n/a	n/a	-999	0	8	[4, 8, 8]	20	0	1	0	n/a	n/a	0.0	0	0	0	catFR2	0	R1157C
884.157	2.285	582775	PROB	2.263	n/a	n/a	n/a	-999	0	8	[3, 4, 2]	9	0	1	0	n/a	n/a	0.0	0	0	0	catFR2	0	R1157C
886.442	3.699	583917	PROB	3.665	n/a	n/a	n/a	-999	0	8	[2, 4, 7]	13	0	1	0	n/a	n/a	0.0	0	0	0	catFR2	0	R1157C
890.141	4.419	585766	PROB	4.383	n/a	n/a	n/a	-999	0	8	[4, 7, 5]	16	0	1	0	n/a	n/a	0.0	0	0	0	catFR2	0	R1157C
894.56	3.228	587976	PROB	3.228	n/a	n/a	n/a	-999	0	8	[6, 4, 4]	14	0	1	0	n/a	n/a	0.0	0	0	0	catFR2	0	R1157C
897.788	0.006	589590	STOP	n/a	n/a	n/a	n/a	-999	0	8	[-999, -999, -999]	n/a	0	1	0	n/a	n/a	0.0	0	0	0	catFR2	0	R1157C
897.794	1.051	589593	DISTRACT_END	n/a	n/a	n/a	n/a	-999	0	8	[0, 0, 0]	n/a	0	1	0	n/a	n/a	0.0	0	0	0	catFR2	0	R1157C
898.845	1.563	590118	REC_START	n/a	n/a	n/a	n/a	-999	0	8	[0, 0, 0]	n/a	0	1	0	n/a	n/a	0.0	0	0	0	catFR2	0	R1157C
900.408	0.682	590899	REC_WORD	1.563	n/a	FISH	OceanAnimals	11	1	8	[0, 0, 0]	n/a	0	1	0	n/a	n/a	0.0	0	0	0	catFR2	0	R1157C
901.09	2.838	591240	REC_WORD	2.245	n/a	LEMONADE	Beverages	9	1	8	[0, 0, 0]	n/a	0	1	0	n/a	n/a	0.0	0	0	0	catFR2	0	R1157C
903.928	0.698	592659	REC_WORD	5.083	n/a	CELERY	Vegetables	3	1	8	[0, 0, 0]	n/a	0	1	0	n/a	n/a	0.0	0	0	0	catFR2	0	R1157C
904.626	6.748	593008	REC_WORD	5.781	n/a	CABBAGE	Vegetables	4	1	8	[0, 0, 0]	n/a	0	1	0	n/a	n/a	0.0	0	0	0	catFR2	0	R1157C
911.374	7.142	596382	REC_WORD	12.529	n/a	WHALE	OceanAnimals	6	1	8	[0, 0, 0]	n/a	0	1	0	n/a	n/a	0.0	0	0	0	catFR2	0	R1157C
918.516	10.34	599953	REC_WORD	19.671	n/a	SODA	Beverages	10	1	8	[0, 0, 0]	n/a	0	1	0	n/a	n/a	0.0	0	0	0	catFR2	0	R1157C
928.856	1.444	605122	REC_END	n/a	n/a	n/a	n/a	-999	0	8	[0, 0, 0]	n/a	0	1	0	n/a	n/a	0.0	0	0	0	catFR2	0	R1157C
930.3	0.0	605844	TRIAL	n/a	n/a	n/a	n/a	-999	0	9	[0, 0, 0]	n/a	0	1	0	n/a	n/a	0.0	0	0	0	catFR2	0	R1157C
930.3	10.0	605844	COUNTDOWN_START	n/a	n/a	n/a	n/a	-999	0	9	[0, 0, 0]	n/a	0	1	0	n/a	n/a	0.0	0	0	0	catFR2	0	R1157C
940.728	0.007	611058	COUNTDOWN_END	n/a	n/a	n/a	n/a	-999	0	9	[0, 0, 0]	n/a	0	1	0	n/a	n/a	0.0	0	0	0	catFR2	0	R1157C
940.735	1.6	611061	ORIENT	n/a	n/a	n/a	n/a	-999	0	9	[0, 0, 0]	n/a	0	1	0	n/a	n/a	0.0	0	0	0	catFR2	0	R1157C
944.353	1.6	612870	WORD	n/a	wordpools/wordpool_categorized_EN.txt	BIRCH	Trees	1	1	9	[0, 0, 0]	n/a	0	1	0	n/a	n/a	0.0	0	0	0	catFR2	0	R1157C
946.92	1.6	614153	WORD	n/a	wordpools/wordpool_categorized_EN.txt	MAPLE	Trees	2	0	9	[0, 0, 0]	n/a	0	1	0	n/a	n/a	0.0	0	0	0	catFR2	0	R1157C
949.165	4.6	615276	STIM_ON	n/a	n/a	n/a	n/a	-999	0	9	[0, 0, 0]	n/a	1	1	4600	HH1	HH2	500.0	50	230	300	catFR2	0	R1157C
949.37	1.6	615378	WORD	n/a	wordpools/wordpool_categorized_EN.txt	PEAS	Vegetables	3	0	9	[0, 0, 0]	n/a	1	1	4600	HH1	HH2	500.0	50	230	300	catFR2	0	R1157C
951.887	1.6	616637	WORD	n/a	wordpools/wordpool_categorized_EN.txt	SPINACH	Vegetables	4	0	9	[0, 0, 0]	n/a	1	1	4600	HH1	HH2	500.0	50	230	300	catFR2	0	R1157C
954.505	1.6	617945	WORD	n/a	wordpools/wordpool_categorized_EN.txt	BASS	Instruments	5	0	9	[0, 0, 0]	n/a	0	1	0	n/a	n/a	0.0	0	0	0	catFR2	0	R1157C
957.054	1.6	619220	WORD	n/a	wordpools/wordpool_categorized_EN.txt	PIANO	Instruments	6	0	9	[0, 0, 0]	n/a	0	1	0	n/a	n/a	0.0	0	0	0	catFR2	0	R1157C
959.402	4.6	620394	STIM_ON	n/a	n/a	n/a	n/a	-999	0	9	[0, 0, 0]	n/a	1	1	4600	HH1	HH2	500.0	50	230	300	catFR2	0	R1157C
959.606	1.6	620496	WORD	n/a	wordpools/wordpool_categorized_EN.txt	SPRUCE	Trees	7	1	9	[0, 0, 0]	n/a	1	1	4600	HH1	HH2	500.0	50	230	300	catFR2	0	R1157C
962.022	1.6	621704	WORD	n/a	wordpools/wordpool_categorized_EN.txt	EVERGREEN	Trees	8	0	9	[0, 0, 0]	n/a	1	1	4600	HH1	HH2	500.0	50	230	300	catFR2	0	R1157C
964.457	1.6	622921	WORD	n/a	wordpools/wordpool_categorized_EN.txt	FLUTE	Instruments	9	0	9	[0, 0, 0]	n/a	0	1	0	n/a	n/a	0.0	0	0	0	catFR2	0	R1157C
967.056	1.6	624220	WORD	n/a	wordpools/wordpool_categorized_EN.txt	DRUM	Instruments	10	0	9	[0, 0, 0]	n/a	0	1	0	n/a	n/a	0.0	0	0	0	catFR2	0	R1157C
969.221	4.6	625303	STIM_ON	n/a	n/a	n/a	n/a	-999	0	9	[0, 0, 0]	n/a	1	1	4600	HH1	HH2	500.0	50	230	300	catFR2	0	R1157C
969.424	1.6	625404	WORD	n/a	wordpools/wordpool_categorized_EN.txt	LETTUCE	Vegetables	11	1	9	[0, 0, 0]	n/a	1	1	4600	HH1	HH2	500.0	50	230	300	catFR2	0	R1157C
971.974	1.6	626679	WORD	n/a	wordpools/wordpool_categorized_EN.txt	BROCCOLI	Vegetables	12	1	9	[0, 0, 0]	n/a	1	1	4600	HH1	HH2	500.0	50	230	300	catFR2	0	R1157C
973.575	0.001	627479	DISTRACT_START	n/a	n/a	n/a	n/a	-999	0	9	[0, 0, 0]	n/a	0	1	0	n/a	n/a	0.0	0	0	0	catFR2	0	R1157C
973.576	0.016	627480	START	n/a	n/a	n/a	n/a	-999	0	9	[-999, -999, -999]	n/a	0	1	0	n/a	n/a	0.0	0	0	0	catFR2	0	R1157C
973.592	3.0	627488	PROB	2.972	n/a	n/a	n/a	-999	0	9	[2, 7, 2]	11	0	1	0	n/a	n/a	0.0	0	0	0	catFR2	0	R1157C
976.592	2.717	628988	PROB	2.684	n/a	n/a	n/a	-999	0	9	[4, 4, 2]	10	0	1	0	n/a	n/a	0.0	0	0	0	catFR2	0	R1157C
979.309	2.201	630346	PROB	2.175	n/a	n/a	n/a	-999	0	9	[5, 3, 1]	9	0	1	0	n/a	n/a	0.0	0	0	0	catFR2	0	R1157C
981.51	6.251	631447	PROB	6.222	n/a	n/a	n/a	-999	0	9	[5, 8, 5]	18	0	1	0	n/a	n/a	0.0	0	0	0	catFR2	0	R1157C
987.761	2.6	634572	PROB	2.571	n/a	n/a	n/a	-999	0	9	[7, 3, 7]	17	0	1	0	n/a	n/a	0.0	0	0	0	catFR2	0	R1157C
990.361	2.817	635872	PROB	2.786	n/a	n/a	n/a	-999	0	9	[8, 6, 9]	23	0	1	0	n/a	n/a	0.0	0	0	0	catFR2	0	R1157C
993.178	3.05	637280	PROB	3.05	n/a	n/a	n/a	-999	0	9	[1, 9, 7]	17	0	1	0	n/a	n/a	0.0	0	0	0	catFR2	0	R1157C
996.228	0.018	638805	STOP	n/a	n/a	n/a	n/a	-999	0	9	[-999, -999, -999]	n/a	0	1	0	n/a	n/a	0.0	0	0	0	catFR2	0	R1157C
996.246	1.201	638814	DISTRACT_END	n/a	n/a	n/a	n/a	-999	0	9	[0, 0, 0]	n/a	0	1	0	n/a	n/a	0.0	0	0	0	catFR2	0	R1157C
997.447	3.866	639414	REC_START	n/a	n/a	n/a	n/a	-999	0	9	[0, 0, 0]	n/a	0	1	0	n/a	n/a	0.0	0	0	0	catFR2	0	R1157C
1001.313	0.834	641347	REC_WORD	3.866	n/a	BROCCOLI	Vegetables	12	1	9	[0, 0, 0]	n/a	0	1	0	n/a	n/a	0.0	0	0	0	catFR2	0	R1157C
1002.147	22.98	641764	REC_WORD	4.7	n/a	LETTUCE	Vegetables	11	1	9	[0, 0, 0]	n/a	0	1	0	n/a	n/a	0.0	0	0	0	catFR2	0	R1157C
1025.127	1.277	653253	REC_WORD	27.68	n/a	SPRUCE	Trees	7	1	9	[0, 0, 0]	n/a	0	1	0	n/a	n/a	0.0	0	0	0	catFR2	0	R1157C
1026.404	1.054	653892	REC_WORD	28.957	n/a	BIRCH	Trees	1	1	9	[0, 0, 0]	n/a	0	1	0	n/a	n/a	0.0	0	0	0	catFR2	0	R1157C
1027.458	1.593	654418	REC_END	n/a	n/a	n/a	n/a	-999	0	9	[0, 0, 0]	n/a	0	1	0	n/a	n/a	0.0	0	0	0	catFR2	0	R1157C
1029.051	0.0	655215	TRIAL	n/a	n/a	n/a	n/a	-999	0	10	[0, 0, 0]	n/a	0	0	0	n/a	n/a	0.0	0	0	0	catFR2	0	R1157C
1029.051	10.0	655215	COUNTDOWN_START	n/a	n/a	n/a	n/a	-999	0	10	[0, 0, 0]	n/a	0	0	0	n/a	n/a	0.0	0	0	0	catFR2	0	R1157C
1039.479	0.008	660428	COUNTDOWN_END	n/a	n/a	n/a	n/a	-999	0	10	[0, 0, 0]	n/a	0	0	0	n/a	n/a	0.0	0	0	0	catFR2	0	R1157C
1039.487	1.6	660432	ORIENT	n/a	n/a	n/a	n/a	-999	0	10	[0, 0, 0]	n/a	0	0	0	n/a	n/a	0.0	0	0	0	catFR2	0	R1157C
1043.205	1.6	662291	WORD	n/a	wordpools/wordpool_categorized_EN.txt	MICROWAVE	Electronics	1	1	10	[0, 0, 0]	n/a	0	0	0	n/a	n/a	0.0	0	0	0	catFR2	0	R1157C
1045.672	1.6	663525	WORD	n/a	wordpools/wordpool_categorized_EN.txt	PRINTER	Electronics	2	0	10	[0, 0, 0]	n/a	0	0	0	n/a	n/a	0.0	0	0	0	catFR2	0	R1157C
1048.055	1.6	664716	WORD	n/a	wordpools/wordpool_categorized_EN.txt	FOLDER	OfficeSupplies	3	1	10	[0, 0, 0]	n/a	0	0	0	n/a	n/a	0.0	0	0	0	catFR2	0	R1157C
1050.506	1.6	665941	WORD	n/a	wordpools/wordpool_categorized_EN.txt	MARKER	OfficeSupplies	4	0	10	[0, 0, 0]	n/a	0	0	0	n/a	n/a	0.0	0	0	0	catFR2	0	R1157C
1053.139	1.6	667258	WORD	n/a	wordpools/wordpool_categorized_EN.txt	WATER	Beverages	5	1	10	[0, 0, 0]	n/a	0	0	0	n/a	n/a	0.0	0	0	0	catFR2	0	R1157C
1055.724	1.6	668550	WORD	n/a	wordpools/wordpool_categorized_EN.txt	COLA	Beverages	6	1	10	[0, 0, 0]	n/a	0	0	0	n/a	n/a	0.0	0	0	0	catFR2	0	R1157C
1058.341	1.6	669859	WORD	n/a	wordpools/wordpool_categorized_EN.txt	BINDER	OfficeSupplies	7	1	10	[0, 0, 0]	n/a	0	0	0	n/a	n/a	0.0	0	0	0	catFR2	0	R1157C
1060.791	1.6	671083	WORD	n/a	wordpools/wordpool_categorized_EN.txt	PENCIL	OfficeSupplies	8	0	10	[0, 0, 0]	n/a	0	0	0	n/a	n/a	0.0	0	0	0	catFR2	0	R1157C
1063.408	1.6	672392	WORD	n/a	wordpools/wordpool_categorized_EN.txt	SPEAKER	Electronics	9	0	10	[0, 0, 0]	n/a	0	0	0	n/a	n/a	0.0	0	0	0	catFR2	0	R1157C
1065.792	1.6	673584	WORD	n/a	wordpools/wordpool_categorized_EN.txt	COMPUTER	Electronics	10	0	10	[0, 0, 0]	n/a	0	0	0	n/a	n/a	0.0	0	0	0	catFR2	0	R1157C
1068.276	1.6	674826	WORD	n/a	wordpools/wordpool_categorized_EN.txt	BEER	Beverages	11	1	10	[0, 0, 0]	n/a	0	0	0	n/a	n/a	0.0	0	0	0	catFR2	0	R1157C
1070.793	1.6	676084	WORD	n/a	wordpools/wordpool_categorized_EN.txt	CIDER	Beverages	12	1	10	[0, 0, 0]	n/a	0	0	0	n/a	n/a	0.0	0	0	0	catFR2	0	R1157C
1072.41	0.001	676892	DISTRACT_START	n/a	n/a	n/a	n/a	-999	0	10	[0, 0, 0]	n/a	0	0	0	n/a	n/a	0.0	0	0	0	catFR2	0	R1157C
1072.411	0.016	676893	START	n/a	n/a	n/a	n/a	-999	0	10	[-999, -999, -999]	n/a	0	0	0	n/a	n/a	0.0	0	0	0	catFR2	0	R1157C
1072.427	4.351	676901	PROB	4.329	n/a	n/a	n/a	-999	0	10	[7, 5, 6]	18	0	0	0	n/a	n/a	0.0	0	0	0	catFR2	0	R1157C
1076.778	3.517	679076	PROB	3.482	n/a	n/a	n/a	-999	0	10	[6, 2, 5]	13	0	0	0	n/a	n/a	0.0	0	0	0	catFR2	0	R1157C
1080.295	3.617	680834	PROB	3.589	n/a	n/a	n/a	-999	0	10	[4, 8, 4]	16	0	0	0	n/a	n/a	0.0	0	0	0	catFR2	0	R1157C
1083.912	3.1	682643	PROB	3.076	n/a	n/a	n/a	-999	0	10	[2, 3, 7]	12	0	0	0	n/a	n/a	0.0	0	0	0	catFR2	0	R1157C
1087.012	3.535	684193	PROB	3.504	n/a	n/a	n/a	-999	0	10	[9, 6, 4]	19	0	0	0	n/a	n/a	0.0	0	0	0	catFR2	0	R1157C
1090.547	3.665	685960	PROB	3.665	n/a	n/a	n/a	-999	0	10	[3, 8, 5]	16	0	0	0	n/a	n/a	0.0	0	0	0	catFR2	0	R1157C
1094.212	0.019	687792	STOP	n/a	n/a	n/a	n/a	-999	0	10	[-999, -999, -999]	n/a	0	0	0	n/a	n/a	0.0	0	0	0	catFR2	0	R1157C
1094.231	1.201	687802	DISTRACT_END	n/a	n/a	n/a	n/a	-999	0	10	[0, 0, 0]	n/a	0	0	0	n/a	n/a	0.0	0	0	0	catFR2	0	R1157C
1095.432	2.575	688402	REC_START	n/a	n/a	n/a	n/a	-999	0	10	[0, 0, 0]	n/a	0	0	0	n/a	n/a	0.0	0	0	0	catFR2	0	R1157C
1098.007	0.804	689690	REC_WORD	2.575	n/a	COLA	Beverages	6	1	10	[0, 0, 0]	n/a	0	0	0	n/a	n/a	0.0	0	0	0	catFR2	0	R1157C
1098.811	4.757	690092	REC_WORD	3.379	n/a	CIDER	Beverages	12	1	10	[0, 0, 0]	n/a	0	0	0	n/a	n/a	0.0	0	0	0	catFR2	0	R1157C
1103.568	3.07	692470	REC_WORD	8.136	n/a	WATER	Beverages	5	1	10	[0, 0, 0]	n/a	0	0	0	n/a	n/a	0.0	0	0	0	catFR2	0	R1157C
1106.638	6.661	694005	REC_WORD	11.206	n/a	MICROWAVE	Electronics	1	1	10	[0, 0, 0]	n/a	0	0	0	n/a	n/a	0.0	0	0	0	catFR2	0	R1157C
1113.299	4.627	697335	REC_WORD	17.867	n/a	BEER	Beverages	11	1	10	[0, 0, 0]	n/a	0	0	0	n/a	n/a	0.0	0	0	0	catFR2	0	R1157C
1117.926	0.539	699648	REC_WORD	22.494	n/a	BINDER	OfficeSupplies	7	1	10	[0, 0, 0]	n/a	0	0	0	n/a	n/a	0.0	0	0	0	catFR2	0	R1157C
1118.465	6.978	699918	REC_WORD	23.033	n/a	FOLDER	OfficeSupplies	3	1	10	[0, 0, 0]	n/a	0	0	0	n/a	n/a	0.0	0	0	0	catFR2	0	R1157C
1125.443	1.56	703406	REC_END	n/a	n/a	n/a	n/a	-999	0	10	[0, 0, 0]	n/a	0	0	0	n/a	n/a	0.0	0	0	0	catFR2	0	R1157C
1127.003	0.0	704186	TRIAL	n/a	n/a	n/a	n/a	-999	0	11	[0, 0, 0]	n/a	0	1	0	n/a	n/a	0.0	0	0	0	catFR2	0	R1157C
1127.003	10.0	704186	COUNTDOWN_START	n/a	n/a	n/a	n/a	-999	0	11	[0, 0, 0]	n/a	0	1	0	n/a	n/a	0.0	0	0	0	catFR2	0	R1157C
1137.431	0.008	709400	COUNTDOWN_END	n/a	n/a	n/a	n/a	-999	0	11	[0, 0, 0]	n/a	0	1	0	n/a	n/a	0.0	0	0	0	catFR2	0	R1157C
1137.439	1.6	709404	ORIENT	n/a	n/a	n/a	n/a	-999	0	11	[0, 0, 0]	n/a	0	1	0	n/a	n/a	0.0	0	0	0	catFR2	0	R1157C
1140.868	4.6	711118	STIM_ON	n/a	n/a	n/a	n/a	-999	0	11	[0, 0, 0]	n/a	1	1	4600	HH1	HH2	500.0	50	230	300	catFR2	0	R1157C
1141.072	1.6	711220	WORD	n/a	wordpools/wordpool_categorized_EN.txt	ROBIN	Birds	1	0	11	[0, 0, 0]	n/a	1	1	4600	HH1	HH2	500.0	50	230	300	catFR2	0	R1157C
1143.624	1.6	712496	WORD	n/a	wordpools/wordpool_categorized_EN.txt	SPARROW	Birds	2	1	11	[0, 0, 0]	n/a	1	1	4600	HH1	HH2	500.0	50	230	300	catFR2	0	R1157C
1146.207	1.6	713787	WORD	n/a	wordpools/wordpool_categorized_EN.txt	JUICE	Beverages	3	0	11	[0, 0, 0]	n/a	0	1	0	n/a	n/a	0.0	0	0	0	catFR2	0	R1157C
1148.708	1.6	715038	WORD	n/a	wordpools/wordpool_categorized_EN.txt	WINE	Beverages	4	0	11	[0, 0, 0]	n/a	0	1	0	n/a	n/a	0.0	0	0	0	catFR2	0	R1157C
1150.952	4.6	716160	STIM_ON	n/a	n/a	n/a	n/a	-999	0	11	[0, 0, 0]	n/a	1	1	4600	HH1	HH2	500.0	50	230	300	catFR2	0	R1157C
1151.157	1.6	716262	WORD	n/a	wordpools/wordpool_categorized_EN.txt	DESK	Furniture	5	0	11	[0, 0, 0]	n/a	1	1	4600	HH1	HH2	500.0	50	230	300	catFR2	0	R1157C
1153.742	1.6	717555	WORD	n/a	wordpools/wordpool_categorized_EN.txt	COUCH	Furniture	6	0	11	[0, 0, 0]	n/a	1	1	4600	HH1	HH2	500.0	50	230	300	catFR2	0	R1157C
1156.125	1.6	718746	WORD	n/a	wordpools/wordpool_categorized_EN.txt	PIGEON	Birds	7	1	11	[0, 0, 0]	n/a	0	1	0	n/a	n/a	0.0	0	0	0	catFR2	0	R1157C
1158.676	1.6	720021	WORD	n/a	wordpools/wordpool_categorized_EN.txt	SEAGULL	Birds	8	0	11	[0, 0, 0]	n/a	0	1	0	n/a	n/a	0.0	0	0	0	catFR2	0	R1157C
1161.045	4.6	721206	STIM_ON	n/a	n/a	n/a	n/a	-999	0	11	[0, 0, 0]	n/a	1	1	4600	HH1	HH2	500.0	50	230	300	catFR2	0	R1157C
1161.26	1.6	721313	WORD	n/a	wordpools/wordpool_categorized_EN.txt	DRESSER	Furniture	9	0	11	[0, 0, 0]	n/a	1	1	4600	HH1	HH2	500.0	50	230	300	catFR2	0	R1157C
1163.727	1.6	722547	WORD	n/a	wordpools/wordpool_categorized_EN.txt	CABINET	Furniture	10	0	11	[0, 0, 0]	n/a	1	1	4600	HH1	HH2	500.0	50	230	300	catFR2	0	R1157C
1166.16	1.6	723763	WORD	n/a	wordpools/wordpool_categorized_EN.txt	TEA	Beverages	11	1	11	[0, 0, 0]	n/a	0	1	0	n/a	n/a	0.0	0	0	0	catFR2	0	R1157C
1168.612	1.6	724989	WORD	n/a	wordpools/wordpool_categorized_EN.txt	COFFEE	Beverages	12	1	11	[0, 0, 0]	n/a	0	1	0	n/a	n/a	0.0	0	0	0	catFR2	0	R1157C
1170.229	0.001	725797	DISTRACT_START	n/a	n/a	n/a	n/a	-999	0	11	[0, 0, 0]	n/a	0	1	0	n/a	n/a	0.0	0	0	0	catFR2	0	R1157C
1170.23	0.015	725798	START	n/a	n/a	n/a	n/a	-999	0	11	[-999, -999, -999]	n/a	0	1	0	n/a	n/a	0.0	0	0	0	catFR2	0	R1157C
1170.245	4.084	725805	PROB	4.055	n/a	n/a	n/a	-999	0	11	[9, 4, 3]	16	0	1	0	n/a	n/a	0.0	0	0	0	catFR2	0	R1157C
1174.329	3.667	727847	PROB	3.635	n/a	n/a	n/a	-999	0	11	[3, 8, 5]	16	0	1	0	n/a	n/a	0.0	0	0	0	catFR2	0	R1157C
1177.996	2.968	729680	PROB	2.944	n/a	n/a	n/a	-999	0	11	[5, 5, 4]	14	0	1	0	n/a	n/a	0.0	0	0	0	catFR2	0	R1157C
1180.964	2.066	731164	PROB	2.039	n/a	n/a	n/a	-999	0	11	[8, 1, 1]	10	0	1	0	n/a	n/a	0.0	0	0	0	catFR2	0	R1157C
1183.03	4.868	732197	PROB	4.846	n/a	n/a	n/a	-999	0	11	[8, 5, 7]	20	0	1	0	n/a	n/a	0.0	0	0	0	catFR2	0	R1157C
1187.898	2.642	734631	PROB	2.642	n/a	n/a	n/a	-999	0	11	[8, 2, 6]	16	0	1	0	n/a	n/a	0.0	0	0	0	catFR2	0	R1157C
1190.54	0.009	735952	STOP	n/a	n/a	n/a	n/a	-999	0	11	[-999, -999, -999]	n/a	0	1	0	n/a	n/a	0.0	0	0	0	catFR2	0	R1157C
1190.549	1.201	735956	DISTRACT_END	n/a	n/a	n/a	n/a	-999	0	11	[0, 0, 0]	n/a	0	1	0	n/a	n/a	0.0	0	0	0	catFR2	0	R1157C
1191.75	8.178	736557	REC_START	n/a	n/a	n/a	n/a	-999	0	11	[0, 0, 0]	n/a	0	1	0	n/a	n/a	0.0	0	0	0	catFR2	0	R1157C
1199.928	5.926	740645	REC_WORD	8.178	n/a	TEA	Beverages	11	1	11	[0, 0, 0]	n/a	0	1	0	n/a	n/a	0.0	0	0	0	catFR2	0	R1157C
1205.854	7.956	743608	REC_WORD	14.104	n/a	PIGEON	Birds	7	1	11	[0, 0, 0]	n/a	0	1	0	n/a	n/a	0.0	0	0	0	catFR2	0	R1157C
1213.81	6.114	747586	REC_WORD	22.06	n/a	SPARROW	Birds	2	1	11	[0, 0, 0]	n/a	0	1	0	n/a	n/a	0.0	0	0	0	catFR2	0	R1157C
1219.924	1.837	750642	REC_WORD	28.174	n/a	COFFEE	Beverages	12	1	11	[0, 0, 0]	n/a	0	1	0	n/a	n/a	0.0	0	0	0	catFR2	0	R1157C
1221.761	1.461	751561	REC_END	n/a	n/a	n/a	n/a	-999	0	11	[0, 0, 0]	n/a	0	1	0	n/a	n/a	0.0	0	0	0	catFR2	0	R1157C
1223.222	0.0	752291	TRIAL	n/a	n/a	n/a	n/a	-999	0	12	[0, 0, 0]	n/a	0	1	0	n/a	n/a	0.0	0	0	0	catFR2	0	R1157C
1223.222	10.0	752291	COUNTDOWN_START	n/a	n/a	n/a	n/a	-999	0	12	[0, 0, 0]	n/a	0	1	0	n/a	n/a	0.0	0	0	0	catFR2	0	R1157C
1233.65	0.007	757505	COUNTDOWN_END	n/a	n/a	n/a	n/a	-999	0	12	[0, 0, 0]	n/a	0	1	0	n/a	n/a	0.0	0	0	0	catFR2	0	R1157C
1233.657	1.6	757508	ORIENT	n/a	n/a	n/a	n/a	-999	0	12	[0, 0, 0]	n/a	0	1	0	n/a	n/a	0.0	0	0	0	catFR2	0	R1157C
1237.107	1.6	759233	WORD	n/a	wordpools/wordpool_categorized_EN.txt	PIE	Desserts	1	1	12	[0, 0, 0]	n/a	0	1	0	n/a	n/a	0.0	0	0	0	catFR2	0	R1157C
1239.575	1.6	760467	WORD	n/a	wordpools/wordpool_categorized_EN.txt	FUDGE	Desserts	2	1	12	[0, 0, 0]	n/a	0	1	0	n/a	n/a	0.0	0	0	0	catFR2	0	R1157C
1241.893	4.6	761626	STIM_ON	n/a	n/a	n/a	n/a	-999	0	12	[0, 0, 0]	n/a	1	1	4600	HH1	HH2	500.0	50	230	300	catFR2	0	R1157C
1242.108	1.6	761733	WORD	n/a	wordpools/wordpool_categorized_EN.txt	LEMON	Fruit	3	0	12	[0, 0, 0]	n/a	1	1	4600	HH1	HH2	500.0	50	230	300	catFR2	0	R1157C
1244.709	1.6	763034	WORD	n/a	wordpools/wordpool_categorized_EN.txt	ORANGE	Fruit	4	0	12	[0, 0, 0]	n/a	1	1	4600	HH1	HH2	500.0	50	230	300	catFR2	0	R1157C
1247.175	1.6	764267	WORD	n/a	wordpools/wordpool_categorized_EN.txt	AXE	Tools	5	0	12	[0, 0, 0]	n/a	0	1	0	n/a	n/a	0.0	0	0	0	catFR2	0	R1157C
1249.71	1.6	765534	WORD	n/a	wordpools/wordpool_categorized_EN.txt	SANDER	Tools	6	0	12	[0, 0, 0]	n/a	0	1	0	n/a	n/a	0.0	0	0	0	catFR2	0	R1157C
1251.961	4.6	766659	STIM_ON	n/a	n/a	n/a	n/a	-999	0	12	[0, 0, 0]	n/a	1	1	4600	HH1	HH2	500.0	50	230	300	catFR2	0	R1157C
1252.176	1.6	766767	WORD	n/a	wordpools/wordpool_categorized_EN.txt	PASTRY	Desserts	7	0	12	[0, 0, 0]	n/a	1	1	4600	HH1	HH2	500.0	50	230	300	catFR2	0	R1157C
1254.711	1.6	768034	WORD	n/a	wordpools/wordpool_categorized_EN.txt	MOUSSE	Desserts	8	1	12	[0, 0, 0]	n/a	1	1	4600	HH1	HH2	500.0	50	230	300	catFR2	0	R1157C
1257.177	1.6	769267	WORD	n/a	wordpools/wordpool_categorized_EN.txt	SAW	Tools	9	0	12	[0, 0, 0]	n/a	0	1	0	n/a	n/a	0.0	0	0	0	catFR2	0	R1157C
1259.679	1.6	770518	WORD	n/a	wordpools/wordpool_categorized_EN.txt	PLIERS	Tools	10	0	12	[0, 0, 0]	n/a	0	1	0	n/a	n/a	0.0	0	0	0	catFR2	0	R1157C
1262.001	4.6	771679	STIM_ON	n/a	n/a	n/a	n/a	-999	0	12	[0, 0, 0]	n/a	1	1	4600	HH1	HH2	500.0	50	230	300	catFR2	0	R1157C
1262.212	1.6	771784	WORD	n/a	wordpools/wordpool_categorized_EN.txt	STRAWBERRY	Fruit	11	1	12	[0, 0, 0]	n/a	1	1	4600	HH1	HH2	500.0	50	230	300	catFR2	0	R1157C
1264.663	1.6	773010	WORD	n/a	wordpools/wordpool_categorized_EN.txt	BANANA	Fruit	12	0	12	[0, 0, 0]	n/a	1	1	4600	HH1	HH2	500.0	50	230	300	catFR2	0	R1157C
1266.28	0.001	773818	DISTRACT_START	n/a	n/a	n/a	n/a	-999	0	12	[0, 0, 0]	n/a	0	1	0	n/a	n/a	0.0	0	0	0	catFR2	0	R1157C
1266.281	0.016	773819	START	n/a	n/a	n/a	n/a	-999	0	12	[-999, -999, -999]	n/a	0	1	0	n/a	n/a	0.0	0	0	0	catFR2	0	R1157C
1266.297	3.117	773827	PROB	3.091	n/a	n/a	n/a	-999	0	12	[9, 8, 3]	20	0	1	0	n/a	n/a	0.0	0	0	0	catFR2	0	R1157C
1269.414	2.567	775385	PROB	2.534	n/a	n/a	n/a	-999	0	12	[3, 3, 2]	8	0	1	0	n/a	n/a	0.0	0	0	0	catFR2	0	R1157C
1271.981	2.867	776668	PROB	2.831	n/a	n/a	n/a	-999	0	12	[6, 2, 4]	12	0	1	0	n/a	n/a	0.0	0	0	0	catFR2	0	R1157C
1274.848	3.401	778102	PROB	3.38	n/a	n/a	n/a	-999	0	12	[4, 5, 5]	13	0	1	0	n/a	n/a	0.0	0	0	0	catFR2	0	R1157C
1278.249	5.051	779802	PROB	5.019	n/a	n/a	n/a	-999	0	12	[9, 4, 2]	15	0	1	0	n/a	n/a	0.0	0	0	0	catFR2	0	R1157C
1283.3	2.484	782327	PROB	2.464	n/a	n/a	n/a	-999	0	12	[1, 4, 3]	8	0	1	0	n/a	n/a	0.0	0	0	0	catFR2	0	R1157C
1285.784	2.676	783569	PROB	2.676	n/a	n/a	n/a	-999	0	12	[2, 1, 6]	9	0	1	0	n/a	n/a	0.0	0	0	0	catFR2	0	R1157C
1288.46	0.007	784907	STOP	n/a	n/a	n/a	n/a	-999	0	12	[-999, -999, -999]	n/a	0	1	0	n/a	n/a	0.0	0	0	0	catFR2	0	R1157C
1288.467	1.034	784911	DISTRACT_END	n/a	n/a	n/a	n/a	-999	0	12	[0, 0, 0]	n/a	0	1	0	n/a	n/a	0.0	0	0	0	catFR2	0	R1157C
1289.501	2.811	785428	REC_START	n/a	n/a	n/a	n/a	-999	0	12	[0, 0, 0]	n/a	0	1	0	n/a	n/a	0.0	0	0	0	catFR2	0	R1157C
1292.312	6.009	786833	REC_WORD	2.811	n/a	STRAWBERRY	Fruit	11	1	12	[0, 0, 0]	n/a	0	1	0	n/a	n/a	0.0	0	0	0	catFR2	0	R1157C
1298.321	1.048	789837	REC_WORD	8.82	n/a	FUDGE	Desserts	2	1	12	[0, 0, 0]	n/a	0	1	0	n/a	n/a	0.0	0	0	0	catFR2	0	R1157C
1299.369	18.094	790361	REC_WORD	9.868	n/a	PIE	Desserts	1	1	12	[0, 0, 0]	n/a	0	1	0	n/a	n/a	0.0	0	0	0	catFR2	0	R1157C
1317.463	2.051	799407	REC_WORD	27.962	n/a	MOUSSE	Desserts	8	1	12	[0, 0, 0]	n/a	0	1	0	n/a	n/a	0.0	0	0	0	catFR2	0	R1157C
1319.514	2.276	800433	REC_END	n/a	n/a	n/a	n/a	-999	0	12	[0, 0, 0]	n/a	0	1	0	n/a	n/a	0.0	0	0	0	catFR2	0	R1157C
1321.79	10.0	801571	COUNTDOWN_START	n/a	n/a	n/a	n/a	-999	0	13	[0, 0, 0]	n/a	0	0	0	n/a	n/a	0.0	0	0	0	catFR2	0	R1157C
1321.791	10.427	801571	TRIAL	n/a	n/a	n/a	n/a	-999	0	13	[0, 0, 0]	n/a	0	0	0	n/a	n/a	0.0	0	0	0	catFR2	0	R1157C
1332.218	0.008	806784	COUNTDOWN_END	n/a	n/a	n/a	n/a	-999	0	13	[0, 0, 0]	n/a	0	0	0	n/a	n/a	0.0	0	0	0	catFR2	0	R1157C
1332.226	1.6	806788	ORIENT	n/a	n/a	n/a	n/a	-999	0	13	[0, 0, 0]	n/a	0	0	0	n/a	n/a	0.0	0	0	0	catFR2	0	R1157C
1335.676	1.6	808513	WORD	n/a	wordpools/wordpool_categorized_EN.txt	PAPER	OfficeSupplies	1	0	13	[0, 0, 0]	n/a	0	0	0	n/a	n/a	0.0	0	0	0	catFR2	0	R1157C
1338.277	1.6	809813	WORD	n/a	wordpools/wordpool_categorized_EN.txt	STAPLER	OfficeSupplies	2	0	13	[0, 0, 0]	n/a	0	0	0	n/a	n/a	0.0	0	0	0	catFR2	0	R1157C
1340.677	1.6	811013	WORD	n/a	wordpools/wordpool_categorized_EN.txt	STRAINER	KitchenTools	3	1	13	[0, 0, 0]	n/a	0	0	0	n/a	n/a	0.0	0	0	0	catFR2	0	R1157C
1343.11	1.6	812230	WORD	n/a	wordpools/wordpool_categorized_EN.txt	SPATULA	KitchenTools	4	0	13	[0, 0, 0]	n/a	0	0	0	n/a	n/a	0.0	0	0	0	catFR2	0	R1157C
1345.495	1.6	813422	WORD	n/a	wordpools/wordpool_categorized_EN.txt	JACKET	Clothing	5	0	13	[0, 0, 0]	n/a	0	0	0	n/a	n/a	0.0	0	0	0	catFR2	0	R1157C
1348.044	1.6	814696	WORD	n/a	wordpools/wordpool_categorized_EN.txt	PANTS	Clothing	6	0	13	[0, 0, 0]	n/a	0	0	0	n/a	n/a	0.0	0	0	0	catFR2	0	R1157C
1350.529	1.6	815939	WORD	n/a	wordpools/wordpool_categorized_EN.txt	COLANDER	KitchenTools	7	1	13	[0, 0, 0]	n/a	0	0	0	n/a	n/a	0.0	0	0	0	catFR2	0	R1157C
1353.129	1.6	817239	WORD	n/a	wordpools/wordpool_categorized_EN.txt	FORK	KitchenTools	8	1	13	[0, 0, 0]	n/a	0	0	0	n/a	n/a	0.0	0	0	0	catFR2	0	R1157C
1355.697	1.6	818523	WORD	n/a	wordpools/wordpool_categorized_EN.txt	ERASER	OfficeSupplies	9	0	13	[0, 0, 0]	n/a	0	0	0	n/a	n/a	0.0	0	0	0	catFR2	0	R1157C
1358.113	1.6	819730	WORD	n/a	wordpools/wordpool_categorized_EN.txt	NOTEBOOK	OfficeSupplies	10	0	13	[0, 0, 0]	n/a	0	0	0	n/a	n/a	0.0	0	0	0	catFR2	0	R1157C
1360.731	1.6	821039	WORD	n/a	wordpools/wordpool_categorized_EN.txt	SHOES	Clothing	11	0	13	[0, 0, 0]	n/a	0	0	0	n/a	n/a	0.0	0	0	0	catFR2	0	R1157C
1363.331	1.6	822339	WORD	n/a	wordpools/wordpool_categorized_EN.txt	SKIRT	Clothing	12	0	13	[0, 0, 0]	n/a	0	0	0	n/a	n/a	0.0	0	0	0	catFR2	0	R1157C
1364.948	0.001	823148	DISTRACT_START	n/a	n/a	n/a	n/a	-999	0	13	[0, 0, 0]	n/a	0	0	0	n/a	n/a	0.0	0	0	0	catFR2	0	R1157C
1364.949	0.016	823148	START	n/a	n/a	n/a	n/a	-999	0	13	[-999, -999, -999]	n/a	0	0	0	n/a	n/a	0.0	0	0	0	catFR2	0	R1157C
1364.965	3.1	823156	PROB	3.07	n/a	n/a	n/a	-999	0	13	[3, 1, 3]	7	0	0	0	n/a	n/a	0.0	0	0	0	catFR2	0	R1157C
1368.065	2.351	824706	PROB	2.331	n/a	n/a	n/a	-999	0	13	[4, 4, 2]	10	0	0	0	n/a	n/a	0.0	0	0	0	catFR2	0	R1157C
1370.416	2.901	825881	PROB	2.868	n/a	n/a	n/a	-999	0	13	[9, 1, 1]	11	0	0	0	n/a	n/a	0.0	0	0	0	catFR2	0	R1157C
1373.317	3.067	827332	PROB	3.031	n/a	n/a	n/a	-999	0	13	[9, 3, 3]	15	0	0	0	n/a	n/a	0.0	0	0	0	catFR2	0	R1157C
1376.384	3.467	828865	PROB	3.444	n/a	n/a	n/a	-999	0	13	[9, 6, 2]	17	0	0	0	n/a	n/a	0.0	0	0	0	catFR2	0	R1157C
1379.851	2.216	830598	PROB	2.192	n/a	n/a	n/a	-999	0	13	[4, 4, 1]	9	0	0	0	n/a	n/a	0.0	0	0	0	catFR2	0	R1157C
1382.067	2.669	831706	PROB	2.633	n/a	n/a	n/a	-999	0	13	[6, 4, 8]	18	0	0	0	n/a	n/a	0.0	0	0	0	catFR2	0	R1157C
1384.736	3.644	833041	PROB	3.644	n/a	n/a	n/a	-999	0	13	[2, 4, 9]	15	0	0	0	n/a	n/a	0.0	0	0	0	catFR2	0	R1157C
1388.38	0.006	834863	STOP	n/a	n/a	n/a	n/a	-999	0	13	[-999, -999, -999]	n/a	0	0	0	n/a	n/a	0.0	0	0	0	catFR2	0	R1157C
1388.386	1.035	834866	DISTRACT_END	n/a	n/a	n/a	n/a	-999	0	13	[0, 0, 0]	n/a	0	0	0	n/a	n/a	0.0	0	0	0	catFR2	0	R1157C
1389.421	2.454	835383	REC_START	n/a	n/a	n/a	n/a	-999	0	13	[0, 0, 0]	n/a	0	0	0	n/a	n/a	0.0	0	0	0	catFR2	0	R1157C
1391.875	0.572	836610	REC_WORD	2.454	n/a	COLANDER	KitchenTools	7	1	13	[0, 0, 0]	n/a	0	0	0	n/a	n/a	0.0	0	0	0	catFR2	0	R1157C
1392.447	0.783	836896	REC_WORD	3.026	n/a	STRAINER	KitchenTools	3	1	13	[0, 0, 0]	n/a	0	0	0	n/a	n/a	0.0	0	0	0	catFR2	0	R1157C
1393.23	26.202	837287	REC_WORD	3.809	n/a	FORK	KitchenTools	8	1	13	[0, 0, 0]	n/a	0	0	0	n/a	n/a	0.0	0	0	0	catFR2	0	R1157C
1419.432	1.576	850387	REC_END	n/a	n/a	n/a	n/a	-999	0	13	[0, 0, 0]	n/a	0	0	0	n/a	n/a	0.0	0	0	0	catFR2	0	R1157C
1421.008	0.0	851175	TRIAL	n/a	n/a	n/a	n/a	-999	0	14	[0, 0, 0]	n/a	0	1	0	n/a	n/a	0.0	0	0	0	catFR2	0	R1157C
1421.008	10.0	851175	COUNTDOWN_START	n/a	n/a	n/a	n/a	-999	0	14	[0, 0, 0]	n/a	0	1	0	n/a	n/a	0.0	0	0	0	catFR2	0	R1157C
1431.436	0.008	856388	COUNTDOWN_END	n/a	n/a	n/a	n/a	-999	0	14	[0, 0, 0]	n/a	0	1	0	n/a	n/a	0.0	0	0	0	catFR2	0	R1157C
1431.444	1.6	856392	ORIENT	n/a	n/a	n/a	n/a	-999	0	14	[0, 0, 0]	n/a	0	1	0	n/a	n/a	0.0	0	0	0	catFR2	0	R1157C
1435.047	4.6	858194	STIM_ON	n/a	n/a	n/a	n/a	-999	0	14	[0, 0, 0]	n/a	1	1	4600	HH1	HH2	500.0	50	230	300	catFR2	0	R1157C
1435.262	1.6	858301	WORD	n/a	wordpools/wordpool_categorized_EN.txt	GOAT	FarmAnimals	1	0	14	[0, 0, 0]	n/a	1	1	4600	HH1	HH2	500.0	50	230	300	catFR2	0	R1157C
1437.712	1.6	859526	WORD	n/a	wordpools/wordpool_categorized_EN.txt	HORSE	FarmAnimals	2	0	14	[0, 0, 0]	n/a	1	1	4600	HH1	HH2	500.0	50	230	300	catFR2	0	R1157C
1440.296	1.6	860818	WORD	n/a	wordpools/wordpool_categorized_EN.txt	OCTOPUS	OceanAnimals	3	1	14	[0, 0, 0]	n/a	0	1	0	n/a	n/a	0.0	0	0	0	catFR2	0	R1157C
1442.763	1.6	862051	WORD	n/a	wordpools/wordpool_categorized_EN.txt	OYSTER	OceanAnimals	4	1	14	[0, 0, 0]	n/a	0	1	0	n/a	n/a	0.0	0	0	0	catFR2	0	R1157C
1444.98	4.6	863160	STIM_ON	n/a	n/a	n/a	n/a	-999	0	14	[0, 0, 0]	n/a	1	1	4600	HH1	HH2	500.0	50	230	300	catFR2	0	R1157C
1445.197	1.6	863268	WORD	n/a	wordpools/wordpool_categorized_EN.txt	BATHROOM	Building	5	1	14	[0, 0, 0]	n/a	1	1	4600	HH1	HH2	500.0	50	230	300	catFR2	0	R1157C
1447.781	1.6	864560	WORD	n/a	wordpools/wordpool_categorized_EN.txt	DOOR	Building	6	0	14	[0, 0, 0]	n/a	1	1	4600	HH1	HH2	500.0	50	230	300	catFR2	0	R1157C
1450.381	1.6	865860	WORD	n/a	wordpools/wordpool_categorized_EN.txt	SHEEP	FarmAnimals	7	0	14	[0, 0, 0]	n/a	0	1	0	n/a	n/a	0.0	0	0	0	catFR2	0	R1157C
1452.965	1.6	867152	WORD	n/a	wordpools/wordpool_categorized_EN.txt	LAMB	FarmAnimals	8	0	14	[0, 0, 0]	n/a	0	1	0	n/a	n/a	0.0	0	0	0	catFR2	0	R1157C
1455.21	4.6	868274	STIM_ON	n/a	n/a	n/a	n/a	-999	0	14	[0, 0, 0]	n/a	1	1	4600	HH1	HH2	500.0	50	230	300	catFR2	0	R1157C
1455.416	1.6	868377	WORD	n/a	wordpools/wordpool_categorized_EN.txt	ROOF	Building	9	0	14	[0, 0, 0]	n/a	1	1	4600	HH1	HH2	500.0	50	230	300	catFR2	0	R1157C
1457.933	1.6	869636	WORD	n/a	wordpools/wordpool_categorized_EN.txt	WALL	Building	10	0	14	[0, 0, 0]	n/a	1	1	4600	HH1	HH2	500.0	50	230	300	catFR2	0	R1157C
1460.383	1.6	870861	WORD	n/a	wordpools/wordpool_categorized_EN.txt	LOBSTER	OceanAnimals	11	1	14	[0, 0, 0]	n/a	0	1	0	n/a	n/a	0.0	0	0	0	catFR2	0	R1157C
1462.95	1.6	872144	WORD	n/a	wordpools/wordpool_categorized_EN.txt	CRAB	OceanAnimals	12	1	14	[0, 0, 0]	n/a	0	1	0	n/a	n/a	0.0	0	0	0	catFR2	0	R1157C
1464.567	0.001	872952	DISTRACT_START	n/a	n/a	n/a	n/a	-999	0	14	[0, 0, 0]	n/a	0	1	0	n/a	n/a	0.0	0	0	0	catFR2	0	R1157C
1464.568	0.016	872953	START	n/a	n/a	n/a	n/a	-999	0	14	[-999, -999, -999]	n/a	0	1	0	n/a	n/a	0.0	0	0	0	catFR2	0	R1157C
1464.584	3.583	872961	PROB	3.547	n/a	n/a	n/a	-999	0	14	[4, 8, 9]	21	0	1	0	n/a	n/a	0.0	0	0	0	catFR2	0	R1157C
1468.167	3.235	874752	PROB	3.205	n/a	n/a	n/a	-999	0	14	[7, 8, 6]	21	0	1	0	n/a	n/a	0.0	0	0	0	catFR2	0	R1157C
1471.402	3.117	876370	PROB	3.09	n/a	n/a	n/a	-999	0	14	[9, 6, 5]	20	0	1	0	n/a	n/a	0.0	0	0	0	catFR2	0	R1157C
1474.519	3.633	877928	PROB	3.612	n/a	n/a	n/a	-999	0	14	[8, 4, 5]	17	0	1	0	n/a	n/a	0.0	0	0	0	catFR2	0	R1157C
1478.152	2.435	879744	PROB	2.404	n/a	n/a	n/a	-999	0	14	[7, 2, 3]	12	0	1	0	n/a	n/a	0.0	0	0	0	catFR2	0	R1157C
1480.587	2.85	880962	PROB	2.817	n/a	n/a	n/a	-999	0	14	[1, 6, 3]	10	0	1	0	n/a	n/a	0.0	0	0	0	catFR2	0	R1157C
1483.437	4.726	882387	PROB	4.726	n/a	n/a	n/a	-999	0	14	[2, 4, 9]	15	0	1	0	n/a	n/a	0.0	0	0	0	catFR2	0	R1157C
1488.163	0.008	884749	STOP	n/a	n/a	n/a	n/a	-999	0	14	[-999, -999, -999]	n/a	0	1	0	n/a	n/a	0.0	0	0	0	catFR2	0	R1157C
1488.171	1.201	884753	DISTRACT_END	n/a	n/a	n/a	n/a	-999	0	14	[0, 0, 0]	n/a	0	1	0	n/a	n/a	0.0	0	0	0	catFR2	0	R1157C
1489.372	0.812	885354	REC_START	n/a	n/a	n/a	n/a	-999	0	14	[0, 0, 0]	n/a	0	1	0	n/a	n/a	0.0	0	0	0	catFR2	0	R1157C
1490.184	0.804	885760	REC_WORD	0.812	n/a	CRAB	OceanAnimals	12	1	14	[0, 0, 0]	n/a	0	1	0	n/a	n/a	0.0	0	0	0	catFR2	0	R1157C
1490.988	1.525	886162	REC_WORD	1.616	n/a	LOBSTER	OceanAnimals	11	1	14	[0, 0, 0]	n/a	0	1	0	n/a	n/a	0.0	0	0	0	catFR2	0	R1157C
1492.513	6.57	886924	REC_WORD	3.141	n/a	OCTOPUS	OceanAnimals	3	1	14	[0, 0, 0]	n/a	0	1	0	n/a	n/a	0.0	0	0	0	catFR2	0	R1157C
1499.083	7.521	890209	REC_WORD	9.711	n/a	OYSTER	OceanAnimals	4	1	14	[0, 0, 0]	n/a	0	1	0	n/a	n/a	0.0	0	0	0	catFR2	0	R1157C
1506.604	12.783	893969	REC_WORD	17.232	n/a	BATHROOM	Building	5	1	14	[0, 0, 0]	n/a	0	1	0	n/a	n/a	0.0	0	0	0	catFR2	0	R1157C
1519.387	1.64	900360	REC_END	n/a	n/a	n/a	n/a	-999	0	14	[0, 0, 0]	n/a	0	1	0	n/a	n/a	0.0	0	0	0	catFR2	0	R1157C
1521.027	0.0	901180	TRIAL	n/a	n/a	n/a	n/a	-999	0	15	[0, 0, 0]	n/a	0	0	0	n/a	n/a	0.0	0	0	0	catFR2	0	R1157C
1521.027	10.0	901180	COUNTDOWN_START	n/a	n/a	n/a	n/a	-999	0	15	[0, 0, 0]	n/a	0	0	0	n/a	n/a	0.0	0	0	0	catFR2	0	R1157C
1531.455	0.008	906393	COUNTDOWN_END	n/a	n/a	n/a	n/a	-999	0	15	[0, 0, 0]	n/a	0	0	0	n/a	n/a	0.0	0	0	0	catFR2	0	R1157C
1531.463	1.6	906397	ORIENT	n/a	n/a	n/a	n/a	-999	0	15	[0, 0, 0]	n/a	0	0	0	n/a	n/a	0.0	0	0	0	catFR2	0	R1157C
1535.314	1.6	908323	WORD	n/a	wordpools/wordpool_categorized_EN.txt	VALLEY	Landscapes	1	1	15	[0, 0, 0]	n/a	0	0	0	n/a	n/a	0.0	0	0	0	catFR2	0	R1157C
1537.814	1.6	909573	WORD	n/a	wordpools/wordpool_categorized_EN.txt	RIVER	Landscapes	2	1	15	[0, 0, 0]	n/a	0	0	0	n/a	n/a	0.0	0	0	0	catFR2	0	R1157C
1540.432	1.6	910881	WORD	n/a	wordpools/wordpool_categorized_EN.txt	FOOT	BodyParts	3	1	15	[0, 0, 0]	n/a	0	0	0	n/a	n/a	0.0	0	0	0	catFR2	0	R1157C
1542.848	1.6	912089	WORD	n/a	wordpools/wordpool_categorized_EN.txt	HEAD	BodyParts	4	0	15	[0, 0, 0]	n/a	0	0	0	n/a	n/a	0.0	0	0	0	catFR2	0	R1157C
1545.466	1.6	913398	WORD	n/a	wordpools/wordpool_categorized_EN.txt	SOFA	Furniture	5	0	15	[0, 0, 0]	n/a	0	0	0	n/a	n/a	0.0	0	0	0	catFR2	0	R1157C
1547.966	1.6	914648	WORD	n/a	wordpools/wordpool_categorized_EN.txt	RECLINER	Furniture	6	1	15	[0, 0, 0]	n/a	0	0	0	n/a	n/a	0.0	0	0	0	catFR2	0	R1157C
1550.4	1.6	915865	WORD	n/a	wordpools/wordpool_categorized_EN.txt	KNEE	BodyParts	7	1	15	[0, 0, 0]	n/a	0	0	0	n/a	n/a	0.0	0	0	0	catFR2	0	R1157C
1552.884	1.6	917107	WORD	n/a	wordpools/wordpool_categorized_EN.txt	NOSE	BodyParts	8	1	15	[0, 0, 0]	n/a	0	0	0	n/a	n/a	0.0	0	0	0	catFR2	0	R1157C
1555.384	1.6	918357	WORD	n/a	wordpools/wordpool_categorized_EN.txt	WOODS	Landscapes	9	0	15	[0, 0, 0]	n/a	0	0	0	n/a	n/a	0.0	0	0	0	catFR2	0	R1157C
1557.951	1.6	919640	WORD	n/a	wordpools/wordpool_categorized_EN.txt	BEACH	Landscapes	10	1	15	[0, 0, 0]	n/a	0	0	0	n/a	n/a	0.0	0	0	0	catFR2	0	R1157C
1560.335	1.6	920832	WORD	n/a	wordpools/wordpool_categorized_EN.txt	NIGHTSTAND	Furniture	11	0	15	[0, 0, 0]	n/a	0	0	0	n/a	n/a	0.0	0	0	0	catFR2	0	R1157C
1562.952	1.6	922140	WORD	n/a	wordpools/wordpool_categorized_EN.txt	BOOKCASE	Furniture	12	0	15	[0, 0, 0]	n/a	0	0	0	n/a	n/a	0.0	0	0	0	catFR2	0	R1157C
1564.569	0.001	922949	DISTRACT_START	n/a	n/a	n/a	n/a	-999	0	15	[0, 0, 0]	n/a	0	0	0	n/a	n/a	0.0	0	0	0	catFR2	0	R1157C
1564.57	0.016	922949	START	n/a	n/a	n/a	n/a	-999	0	15	[-999, -999, -999]	n/a	0	0	0	n/a	n/a	0.0	0	0	0	catFR2	0	R1157C
1564.586	3.351	922957	PROB	3.33	n/a	n/a	n/a	-999	0	15	[5, 2, 4]	11	0	0	0	n/a	n/a	0.0	0	0	0	catFR2	0	R1157C
1567.937	3.3	924633	PROB	3.275	n/a	n/a	n/a	-999	0	15	[2, 3, 3]	8	0	0	0	n/a	n/a	0.0	0	0	0	catFR2	0	R1157C
1571.237	2.551	926282	PROB	2.527	n/a	n/a	n/a	-999	0	15	[7, 3, 6]	16	0	0	0	n/a	n/a	0.0	0	0	0	catFR2	0	R1157C
1573.788	2.884	927558	PROB	2.856	n/a	n/a	n/a	-999	0	15	[4, 4, 4]	12	0	0	0	n/a	n/a	0.0	0	0	0	catFR2	0	R1157C
1576.672	3.2	929000	PROB	3.164	n/a	n/a	n/a	-999	0	15	[3, 4, 9]	16	0	0	0	n/a	n/a	0.0	0	0	0	catFR2	0	R1157C
1579.872	3.984	930600	PROB	3.964	n/a	n/a	n/a	-999	0	15	[8, 4, 6]	18	0	0	0	n/a	n/a	0.0	0	0	0	catFR2	0	R1157C
1583.856	2.852	932591	PROB	2.852	n/a	n/a	n/a	-999	0	15	[1, 9, 9]	19	0	0	0	n/a	n/a	0.0	0	0	0	catFR2	0	R1157C
1586.708	0.015	934017	STOP	n/a	n/a	n/a	n/a	-999	0	15	[-999, -999, -999]	n/a	0	0	0	n/a	n/a	0.0	0	0	0	catFR2	0	R1157C
1586.723	1.118	934025	DISTRACT_END	n/a	n/a	n/a	n/a	-999	0	15	[0, 0, 0]	n/a	0	0	0	n/a	n/a	0.0	0	0	0	catFR2	0	R1157C
1587.841	2.04	934584	REC_START	n/a	n/a	n/a	n/a	-999	0	15	[0, 0, 0]	n/a	0	0	0	n/a	n/a	0.0	0	0	0	catFR2	0	R1157C
1589.881	0.646	935604	REC_WORD	2.04	n/a	VALLEY	Landscapes	1	1	15	[0, 0, 0]	n/a	0	0	0	n/a	n/a	0.0	0	0	0	catFR2	0	R1157C
1590.527	4.052	935927	REC_WORD	2.686	n/a	RIVER	Landscapes	2	1	15	[0, 0, 0]	n/a	0	0	0	n/a	n/a	0.0	0	0	0	catFR2	0	R1157C
1594.579	0.788	937952	REC_WORD	6.738	n/a	BEACH	Landscapes	10	1	15	[0, 0, 0]	n/a	0	0	0	n/a	n/a	0.0	0	0	0	catFR2	0	R1157C
1595.367	4.589	938346	REC_WORD	7.526	n/a	RECLINER	Furniture	6	1	15	[0, 0, 0]	n/a	0	0	0	n/a	n/a	0.0	0	0	0	catFR2	0	R1157C
1599.956	0.748	940641	REC_WORD	12.115	n/a	FOOT	BodyParts	3	1	15	[0, 0, 0]	n/a	0	0	0	n/a	n/a	0.0	0	0	0	catFR2	0	R1157C
1600.704	0.777	941015	REC_WORD	12.863	n/a	KNEE	BodyParts	7	1	15	[0, 0, 0]	n/a	0	0	0	n/a	n/a	0.0	0	0	0	catFR2	0	R1157C
1601.481	16.37	941403	REC_WORD	13.64	n/a	NOSE	BodyParts	8	1	15	[0, 0, 0]	n/a	0	0	0	n/a	n/a	0.0	0	0	0	catFR2	0	R1157C
1617.851	1.729	949587	REC_END	n/a	n/a	n/a	n/a	-999	0	15	[0, 0, 0]	n/a	0	0	0	n/a	n/a	0.0	0	0	0	catFR2	0	R1157C
1619.58	0.0	950452	TRIAL	n/a	n/a	n/a	n/a	-999	0	16	[0, 0, 0]	n/a	0	1	0	n/a	n/a	0.0	0	0	0	catFR2	0	R1157C
1619.58	10.0	950452	COUNTDOWN_START	n/a	n/a	n/a	n/a	-999	0	16	[0, 0, 0]	n/a	0	1	0	n/a	n/a	0.0	0	0	0	catFR2	0	R1157C
1630.008	0.006	955665	COUNTDOWN_END	n/a	n/a	n/a	n/a	-999	0	16	[0, 0, 0]	n/a	0	1	0	n/a	n/a	0.0	0	0	0	catFR2	0	R1157C
1630.014	1.6	955668	ORIENT	n/a	n/a	n/a	n/a	-999	0	16	[0, 0, 0]	n/a	0	1	0	n/a	n/a	0.0	0	0	0	catFR2	0	R1157C
1633.378	4.6	957350	STIM_ON	n/a	n/a	n/a	n/a	-999	0	16	[0, 0, 0]	n/a	1	1	4600	HH1	HH2	500.0	50	230	300	catFR2	0	R1157C
1633.582	1.6	957452	WORD	n/a	wordpools/wordpool_categorized_EN.txt	CEDAR	Trees	1	0	16	[0, 0, 0]	n/a	1	1	4600	HH1	HH2	500.0	50	230	300	catFR2	0	R1157C
1636.098	1.6	958710	WORD	n/a	wordpools/wordpool_categorized_EN.txt	ELM	Trees	2	0	16	[0, 0, 0]	n/a	1	1	4600	HH1	HH2	500.0	50	230	300	catFR2	0	R1157C
1638.65	1.6	959986	WORD	n/a	wordpools/wordpool_categorized_EN.txt	TRAIN	Vehicles	3	1	16	[0, 0, 0]	n/a	0	1	0	n/a	n/a	0.0	0	0	0	catFR2	0	R1157C
1641.083	1.6	961202	WORD	n/a	wordpools/wordpool_categorized_EN.txt	MOTORCYCLE	Vehicles	4	1	16	[0, 0, 0]	n/a	0	1	0	n/a	n/a	0.0	0	0	0	catFR2	0	R1157C
1643.38	4.6	962351	STIM_ON	n/a	n/a	n/a	n/a	-999	0	16	[0, 0, 0]	n/a	1	1	4600	HH1	HH2	500.0	50	230	300	catFR2	0	R1157C
1643.584	1.6	962453	WORD	n/a	wordpools/wordpool_categorized_EN.txt	LAKE	Landscapes	5	0	16	[0, 0, 0]	n/a	1	1	4600	HH1	HH2	500.0	50	230	300	catFR2	0	R1157C
1646.167	1.6	963744	WORD	n/a	wordpools/wordpool_categorized_EN.txt	CREEK	Landscapes	6	1	16	[0, 0, 0]	n/a	1	1	4600	HH1	HH2	500.0	50	230	300	catFR2	0	R1157C
1648.735	1.6	965028	WORD	n/a	wordpools/wordpool_categorized_EN.txt	PLANE	Vehicles	7	1	16	[0, 0, 0]	n/a	0	1	0	n/a	n/a	0.0	0	0	0	catFR2	0	R1157C
1651.186	1.6	966253	WORD	n/a	wordpools/wordpool_categorized_EN.txt	CAR	Vehicles	8	1	16	[0, 0, 0]	n/a	0	1	0	n/a	n/a	0.0	0	0	0	catFR2	0	R1157C
1653.471	4.6	967396	STIM_ON	n/a	n/a	n/a	n/a	-999	0	16	[0, 0, 0]	n/a	1	1	4600	HH1	HH2	500.0	50	230	300	catFR2	0	R1157C
1653.686	1.6	967503	WORD	n/a	wordpools/wordpool_categorized_EN.txt	CYPRESS	Trees	9	0	16	[0, 0, 0]	n/a	1	1	4600	HH1	HH2	500.0	50	230	300	catFR2	0	R1157C
1656.102	1.6	968711	WORD	n/a	wordpools/wordpool_categorized_EN.txt	PINE	Trees	10	0	16	[0, 0, 0]	n/a	1	1	4600	HH1	HH2	500.0	50	230	300	catFR2	0	R1157C
1658.553	1.6	969936	WORD	n/a	wordpools/wordpool_categorized_EN.txt	STREAM	Landscapes	11	0	16	[0, 0, 0]	n/a	0	1	0	n/a	n/a	0.0	0	0	0	catFR2	0	R1157C
1661.103	1.6	971211	WORD	n/a	wordpools/wordpool_categorized_EN.txt	OCEAN	Landscapes	12	1	16	[0, 0, 0]	n/a	0	1	0	n/a	n/a	0.0	0	0	0	catFR2	0	R1157C
1662.704	0.001	972012	DISTRACT_START	n/a	n/a	n/a	n/a	-999	0	16	[0, 0, 0]	n/a	0	1	0	n/a	n/a	0.0	0	0	0	catFR2	0	R1157C
1662.705	0.016	972012	START	n/a	n/a	n/a	n/a	-999	0	16	[-999, -999, -999]	n/a	0	1	0	n/a	n/a	0.0	0	0	0	catFR2	0	R1157C
1662.721	3.518	972020	PROB	3.483	n/a	n/a	n/a	-999	0	16	[8, 3, 8]	19	0	1	0	n/a	n/a	0.0	0	0	0	catFR2	0	R1157C
1666.239	2.667	973779	PROB	2.637	n/a	n/a	n/a	-999	0	16	[5, 3, 9]	17	0	1	0	n/a	n/a	0.0	0	0	0	catFR2	0	R1157C
1668.906	3.95	975112	PROB	3.93	n/a	n/a	n/a	-999	0	16	[2, 3, 6]	11	0	1	0	n/a	n/a	0.0	0	0	0	catFR2	0	R1157C
1672.856	3.183	977087	PROB	3.155	n/a	n/a	n/a	-999	0	16	[1, 5, 4]	10	0	1	0	n/a	n/a	0.0	0	0	0	catFR2	0	R1157C
1676.039	4.586	978679	PROB	4.557	n/a	n/a	n/a	-999	0	16	[9, 7, 8]	24	0	1	0	n/a	n/a	0.0	0	0	0	catFR2	0	R1157C
1680.625	3.458	980971	PROB	3.458	n/a	n/a	n/a	-999	0	16	[2, 8, 4]	14	0	1	0	n/a	n/a	0.0	0	0	0	catFR2	0	R1157C
1684.083	0.008	982700	STOP	n/a	n/a	n/a	n/a	-999	0	16	[-999, -999, -999]	n/a	0	1	0	n/a	n/a	0.0	0	0	0	catFR2	0	R1157C
1684.091	1.051	982704	DISTRACT_END	n/a	n/a	n/a	n/a	-999	0	16	[0, 0, 0]	n/a	0	1	0	n/a	n/a	0.0	0	0	0	catFR2	0	R1157C
1685.142	2.167	983230	REC_START	n/a	n/a	n/a	n/a	-999	0	16	[0, 0, 0]	n/a	0	1	0	n/a	n/a	0.0	0	0	0	catFR2	0	R1157C
1687.309	2.094	984313	REC_WORD	2.167	n/a	OCEAN	Landscapes	12	1	16	[0, 0, 0]	n/a	0	1	0	n/a	n/a	0.0	0	0	0	catFR2	0	R1157C
1689.403	5.427	985360	REC_WORD	4.261	n/a	CREEK	Landscapes	6	1	16	[0, 0, 0]	n/a	0	1	0	n/a	n/a	0.0	0	0	0	catFR2	0	R1157C
1694.83	0.966	988073	REC_WORD	9.688	n/a	MOTORCYCLE	Vehicles	4	1	16	[0, 0, 0]	n/a	0	1	0	n/a	n/a	0.0	0	0	0	catFR2	0	R1157C
1695.796	1.013	988556	REC_WORD	10.654	n/a	CAR	Vehicles	8	1	16	[0, 0, 0]	n/a	0	1	0	n/a	n/a	0.0	0	0	0	catFR2	0	R1157C
1696.809	2.811	989063	REC_WORD	11.667	n/a	TRAIN	Vehicles	3	1	16	[0, 0, 0]	n/a	0	1	0	n/a	n/a	0.0	0	0	0	catFR2	0	R1157C
1699.62	15.533	990468	REC_WORD	14.478	n/a	PLANE	Vehicles	7	1	16	[0, 0, 0]	n/a	0	1	0	n/a	n/a	0.0	0	0	0	catFR2	0	R1157C
1715.153	1.578	998234	REC_END	n/a	n/a	n/a	n/a	-999	0	16	[0, 0, 0]	n/a	0	1	0	n/a	n/a	0.0	0	0	0	catFR2	0	R1157C
1716.731	10.0	999023	COUNTDOWN_START	n/a	n/a	n/a	n/a	-999	0	17	[0, 0, 0]	n/a	0	1	0	n/a	n/a	0.0	0	0	0	catFR2	0	R1157C
1716.731	10.428	999023	TRIAL	n/a	n/a	n/a	n/a	-999	0	17	[0, 0, 0]	n/a	0	1	0	n/a	n/a	0.0	0	0	0	catFR2	0	R1157C
1727.159	0.007	1004236	COUNTDOWN_END	n/a	n/a	n/a	n/a	-999	0	17	[0, 0, 0]	n/a	0	1	0	n/a	n/a	0.0	0	0	0	catFR2	0	R1157C
1727.166	1.6	1004240	ORIENT	n/a	n/a	n/a	n/a	-999	0	17	[0, 0, 0]	n/a	0	1	0	n/a	n/a	0.0	0	0	0	catFR2	0	R1157C
1730.654	4.6	1005983	STIM_ON	n/a	n/a	n/a	n/a	-999	0	17	[0, 0, 0]	n/a	1	1	4600	HH1	HH2	500.0	50	230	300	catFR2	0	R1157C
1730.867	1.6	1006090	WORD	n/a	wordpools/wordpool_categorized_EN.txt	CROWBAR	Tools	1	0	17	[0, 0, 0]	n/a	1	1	4600	HH1	HH2	500.0	50	230	300	catFR2	0	R1157C
1733.401	1.6	1007357	WORD	n/a	wordpools/wordpool_categorized_EN.txt	DRILL	Tools	2	0	17	[0, 0, 0]	n/a	1	1	4600	HH1	HH2	500.0	50	230	300	catFR2	0	R1157C
1735.868	1.6	1008590	WORD	n/a	wordpools/wordpool_categorized_EN.txt	WINDOW	Building	3	0	17	[0, 0, 0]	n/a	0	1	0	n/a	n/a	0.0	0	0	0	catFR2	0	R1157C
1738.485	1.6	1009899	WORD	n/a	wordpools/wordpool_categorized_EN.txt	FOUNDATION	Building	4	1	17	[0, 0, 0]	n/a	0	1	0	n/a	n/a	0.0	0	0	0	catFR2	0	R1157C
1740.681	4.6	1010996	STIM_ON	n/a	n/a	n/a	n/a	-999	0	17	[0, 0, 0]	n/a	1	1	4600	HH1	HH2	500.0	50	230	300	catFR2	0	R1157C
1740.886	1.6	1011099	WORD	n/a	wordpools/wordpool_categorized_EN.txt	BARBIE	Toys	5	0	17	[0, 0, 0]	n/a	1	1	4600	HH1	HH2	500.0	50	230	300	catFR2	0	R1157C
1743.453	1.6	1012382	WORD	n/a	wordpools/wordpool_categorized_EN.txt	PUZZLE	Toys	6	1	17	[0, 0, 0]	n/a	1	1	4600	HH1	HH2	500.0	50	230	300	catFR2	0	R1157C
1745.97	1.6	1013641	WORD	n/a	wordpools/wordpool_categorized_EN.txt	WRENCH	Tools	7	1	17	[0, 0, 0]	n/a	0	1	0	n/a	n/a	0.0	0	0	0	catFR2	0	R1157C
1748.421	1.6	1014866	WORD	n/a	wordpools/wordpool_categorized_EN.txt	SHOVEL	Tools	8	0	17	[0, 0, 0]	n/a	0	1	0	n/a	n/a	0.0	0	0	0	catFR2	0	R1157C
1750.769	4.6	1016040	STIM_ON	n/a	n/a	n/a	n/a	-999	0	17	[0, 0, 0]	n/a	1	1	4600	HH1	HH2	500.0	50	230	300	catFR2	0	R1157C
1750.971	1.6	1016141	WORD	n/a	wordpools/wordpool_categorized_EN.txt	SLINKY	Toys	9	0	17	[0, 0, 0]	n/a	1	1	4600	HH1	HH2	500.0	50	230	300	catFR2	0	R1157C
1753.438	1.6	1017374	WORD	n/a	wordpools/wordpool_categorized_EN.txt	BLOCKS	Toys	10	0	17	[0, 0, 0]	n/a	1	1	4600	HH1	HH2	500.0	50	230	300	catFR2	0	R1157C
1755.972	1.6	1018641	WORD	n/a	wordpools/wordpool_categorized_EN.txt	HALLWAY	Building	11	0	17	[0, 0, 0]	n/a	0	1	0	n/a	n/a	0.0	0	0	0	catFR2	0	R1157C
1758.373	1.6	1019842	WORD	n/a	wordpools/wordpool_categorized_EN.txt	CEILING	Building	12	0	17	[0, 0, 0]	n/a	0	1	0	n/a	n/a	0.0	0	0	0	catFR2	0	R1157C
1759.989	0.001	1020650	DISTRACT_START	n/a	n/a	n/a	n/a	-999	0	17	[0, 0, 0]	n/a	0	1	0	n/a	n/a	0.0	0	0	0	catFR2	0	R1157C
1759.99	0.015	1020650	START	n/a	n/a	n/a	n/a	-999	0	17	[-999, -999, -999]	n/a	0	1	0	n/a	n/a	0.0	0	0	0	catFR2	0	R1157C
1760.005	5.769	1020658	PROB	5.735	n/a	n/a	n/a	-999	0	17	[4, 2, 8]	14	0	1	0	n/a	n/a	0.0	0	0	0	catFR2	0	R1157C
1765.774	3.283	1023542	PROB	3.253	n/a	n/a	n/a	-999	0	17	[4, 3, 2]	9	0	1	0	n/a	n/a	0.0	0	0	0	catFR2	0	R1157C
1769.057	2.735	1025183	PROB	2.707	n/a	n/a	n/a	-999	0	17	[7, 8, 2]	17	0	1	0	n/a	n/a	0.0	0	0	0	catFR2	0	R1157C
1771.792	10.379	1026551	PROB	10.379	n/a	n/a	n/a	-999	0	17	[6, 9, 6]	21	0	1	0	n/a	n/a	0.0	0	0	0	catFR2	0	R1157C
1782.171	0.005	1031740	STOP	n/a	n/a	n/a	n/a	-999	0	17	[-999, -999, -999]	n/a	0	1	0	n/a	n/a	0.0	0	0	0	catFR2	0	R1157C
1782.176	1.235	1031742	DISTRACT_END	n/a	n/a	n/a	n/a	-999	0	17	[0, 0, 0]	n/a	0	1	0	n/a	n/a	0.0	0	0	0	catFR2	0	R1157C
1783.411	2.763	1032359	REC_START	n/a	n/a	n/a	n/a	-999	0	17	[0, 0, 0]	n/a	0	1	0	n/a	n/a	0.0	0	0	0	catFR2	0	R1157C
1786.174	10.264	1033741	REC_WORD	2.763	n/a	WRENCH	Tools	7	1	17	[0, 0, 0]	n/a	0	1	0	n/a	n/a	0.0	0	0	0	catFR2	0	R1157C
1796.438	8.844	1038872	REC_WORD	13.027	n/a	FOUNDATION	Building	4	1	17	[0, 0, 0]	n/a	0	1	0	n/a	n/a	0.0	0	0	0	catFR2	0	R1157C
1805.282	8.14	1043294	REC_WORD	21.871	n/a	PUZZLE	Toys	6	1	17	[0, 0, 0]	n/a	0	1	0	n/a	n/a	0.0	0	0	0	catFR2	0	R1157C
1813.422	1.478	1047364	REC_END	n/a	n/a	n/a	n/a	-999	0	17	[0, 0, 0]	n/a	0	1	0	n/a	n/a	0.0	0	0	0	catFR2	0	R1157C
1814.9	0.0	1048102	TRIAL	n/a	n/a	n/a	n/a	-999	0	18	[0, 0, 0]	n/a	0	1	0	n/a	n/a	0.0	0	0	0	catFR2	0	R1157C
1814.9	10.0	1048102	COUNTDOWN_START	n/a	n/a	n/a	n/a	-999	0	18	[0, 0, 0]	n/a	0	1	0	n/a	n/a	0.0	0	0	0	catFR2	0	R1157C
1825.328	0.007	1053316	COUNTDOWN_END	n/a	n/a	n/a	n/a	-999	0	18	[0, 0, 0]	n/a	0	1	0	n/a	n/a	0.0	0	0	0	catFR2	0	R1157C
1825.335	1.6	1053320	ORIENT	n/a	n/a	n/a	n/a	-999	0	18	[0, 0, 0]	n/a	0	1	0	n/a	n/a	0.0	0	0	0	catFR2	0	R1157C
1828.869	1.6	1055086	WORD	n/a	wordpools/wordpool_categorized_EN.txt	FLOOR	Building	1	0	18	[0, 0, 0]	n/a	0	1	0	n/a	n/a	0.0	0	0	0	catFR2	0	R1157C
1831.286	1.6	1056295	WORD	n/a	wordpools/wordpool_categorized_EN.txt	ROOM	Building	2	0	18	[0, 0, 0]	n/a	0	1	0	n/a	n/a	0.0	0	0	0	catFR2	0	R1157C
1833.663	4.6	1057483	STIM_ON	n/a	n/a	n/a	n/a	-999	0	18	[0, 0, 0]	n/a	1	1	4600	HH1	HH2	500.0	50	230	300	catFR2	0	R1157C
1833.87	1.6	1057587	WORD	n/a	wordpools/wordpool_categorized_EN.txt	ZEBRA	Zoo	3	1	18	[0, 0, 0]	n/a	1	1	4600	HH1	HH2	500.0	50	230	300	catFR2	0	R1157C
1836.337	1.6	1058820	WORD	n/a	wordpools/wordpool_categorized_EN.txt	MONKEY	Zoo	4	1	18	[0, 0, 0]	n/a	1	1	4600	HH1	HH2	500.0	50	230	300	catFR2	0	R1157C
1838.888	1.6	1060095	WORD	n/a	wordpools/wordpool_categorized_EN.txt	TABLET	Electronics	5	0	18	[0, 0, 0]	n/a	0	1	0	n/a	n/a	0.0	0	0	0	catFR2	0	R1157C
1841.355	1.6	1061329	WORD	n/a	wordpools/wordpool_categorized_EN.txt	SCANNER	Electronics	6	0	18	[0, 0, 0]	n/a	0	1	0	n/a	n/a	0.0	0	0	0	catFR2	0	R1157C
1843.565	4.6	1062434	STIM_ON	n/a	n/a	n/a	n/a	-999	0	18	[0, 0, 0]	n/a	1	1	4600	HH1	HH2	500.0	50	230	300	catFR2	0	R1157C
1843.772	1.6	1062537	WORD	n/a	wordpools/wordpool_categorized_EN.txt	STAIRS	Building	7	0	18	[0, 0, 0]	n/a	1	1	4600	HH1	HH2	500.0	50	230	300	catFR2	0	R1157C
1846.306	1.6	1063804	WORD	n/a	wordpools/wordpool_categorized_EN.txt	ATTIC	Building	8	1	18	[0, 0, 0]	n/a	1	1	4600	HH1	HH2	500.0	50	230	300	catFR2	0	R1157C
1848.939	1.6	1065120	WORD	n/a	wordpools/wordpool_categorized_EN.txt	HEADPHONES	Electronics	9	1	18	[0, 0, 0]	n/a	0	1	0	n/a	n/a	0.0	0	0	0	catFR2	0	R1157C
1851.456	1.6	1066379	WORD	n/a	wordpools/wordpool_categorized_EN.txt	PHONE	Electronics	10	0	18	[0, 0, 0]	n/a	0	1	0	n/a	n/a	0.0	0	0	0	catFR2	0	R1157C
1853.848	4.6	1067575	STIM_ON	n/a	n/a	n/a	n/a	-999	0	18	[0, 0, 0]	n/a	1	1	4600	HH1	HH2	500.0	50	230	300	catFR2	0	R1157C
1854.056	1.6	1067679	WORD	n/a	wordpools/wordpool_categorized_EN.txt	GORILLA	Zoo	11	1	18	[0, 0, 0]	n/a	1	1	4600	HH1	HH2	500.0	50	230	300	catFR2	0	R1157C
1856.608	1.6	1068955	WORD	n/a	wordpools/wordpool_categorized_EN.txt	ELEPHANT	Zoo	12	0	18	[0, 0, 0]	n/a	1	1	4600	HH1	HH2	500.0	50	230	300	catFR2	0	R1157C
1858.225	0.001	1069763	DISTRACT_START	n/a	n/a	n/a	n/a	-999	0	18	[0, 0, 0]	n/a	0	1	0	n/a	n/a	0.0	0	0	0	catFR2	0	R1157C
1858.226	0.015	1069763	START	n/a	n/a	n/a	n/a	-999	0	18	[-999, -999, -999]	n/a	0	1	0	n/a	n/a	0.0	0	0	0	catFR2	0	R1157C
1858.241	7.118	1069771	PROB	7.083	n/a	n/a	n/a	-999	0	18	[4, 2, 9]	17	0	1	0	n/a	n/a	0.0	0	0	0	catFR2	0	R1157C
1865.359	4.851	1073330	PROB	4.829	n/a	n/a	n/a	-999	0	18	[4, 6, 5]	15	0	1	0	n/a	n/a	0.0	0	0	0	catFR2	0	R1157C
1870.21	2.701	1075755	PROB	2.666	n/a	n/a	n/a	-999	0	18	[7, 3, 3]	13	0	1	0	n/a	n/a	0.0	0	0	0	catFR2	0	R1157C
1872.911	3.6	1077105	PROB	3.565	n/a	n/a	n/a	-999	0	18	[3, 4, 9]	16	0	1	0	n/a	n/a	0.0	0	0	0	catFR2	0	R1157C
1876.511	4.149	1078905	PROB	4.149	n/a	n/a	n/a	-999	0	18	[7, 4, 9]	20	0	1	0	n/a	n/a	0.0	0	0	0	catFR2	0	R1157C
1880.66	0.019	1080979	STOP	n/a	n/a	n/a	n/a	-999	0	18	[-999, -999, -999]	n/a	0	1	0	n/a	n/a	0.0	0	0	0	catFR2	0	R1157C
1880.679	1.101	1080989	DISTRACT_END	n/a	n/a	n/a	n/a	-999	0	18	[0, 0, 0]	n/a	0	1	0	n/a	n/a	0.0	0	0	0	catFR2	0	R1157C
1881.78	1.281	1081539	REC_START	n/a	n/a	n/a	n/a	-999	0	18	[0, 0, 0]	n/a	0	1	0	n/a	n/a	0.0	0	0	0	catFR2	0	R1157C
1883.061	0.467	1082180	REC_WORD	1.281	n/a	GORILLA	Zoo	11	1	18	[0, 0, 0]	n/a	0	1	0	n/a	n/a	0.0	0	0	0	catFR2	0	R1157C
1883.528	1.004	1082413	REC_WORD	1.748	n/a	ZEBRA	Zoo	3	1	18	[0, 0, 0]	n/a	0	1	0	n/a	n/a	0.0	0	0	0	catFR2	0	R1157C
1884.532	6.417	1082915	REC_WORD	2.752	n/a	MONKEY	Zoo	4	1	18	[0, 0, 0]	n/a	0	1	0	n/a	n/a	0.0	0	0	0	catFR2	0	R1157C
1890.949	5.256	1086123	REC_WORD	9.169	n/a	HEADPHONES	Electronics	9	1	18	[0, 0, 0]	n/a	0	1	0	n/a	n/a	0.0	0	0	0	catFR2	0	R1157C
1896.205	15.586	1088751	REC_WORD	14.425	n/a	ATTIC	Building	8	1	18	[0, 0, 0]	n/a	0	1	0	n/a	n/a	0.0	0	0	0	catFR2	0	R1157C
1911.791	1.577	1096543	REC_END	n/a	n/a	n/a	n/a	-999	0	18	[0, 0, 0]	n/a	0	1	0	n/a	n/a	0.0	0	0	0	catFR2	0	R1157C
1913.368	0.0	1097332	TRIAL	n/a	n/a	n/a	n/a	-999	0	19	[0, 0, 0]	n/a	0	0	0	n/a	n/a	0.0	0	0	0	catFR2	0	R1157C
1913.368	10.0	1097332	COUNTDOWN_START	n/a	n/a	n/a	n/a	-999	0	19	[0, 0, 0]	n/a	0	0	0	n/a	n/a	0.0	0	0	0	catFR2	0	R1157C
1923.796	0.008	1102545	COUNTDOWN_END	n/a	n/a	n/a	n/a	-999	0	19	[0, 0, 0]	n/a	0	0	0	n/a	n/a	0.0	0	0	0	catFR2	0	R1157C
1923.804	1.6	1102549	ORIENT	n/a	n/a	n/a	n/a	-999	0	19	[0, 0, 0]	n/a	0	0	0	n/a	n/a	0.0	0	0	0	catFR2	0	R1157C
1927.571	1.6	1104433	WORD	n/a	wordpools/wordpool_categorized_EN.txt	ORGAN	Instruments	1	0	19	[0, 0, 0]	n/a	0	0	0	n/a	n/a	0.0	0	0	0	catFR2	0	R1157C
1930.188	1.6	1105741	WORD	n/a	wordpools/wordpool_categorized_EN.txt	TUBA	Instruments	2	0	19	[0, 0, 0]	n/a	0	0	0	n/a	n/a	0.0	0	0	0	catFR2	0	R1157C
1932.572	1.6	1106933	WORD	n/a	wordpools/wordpool_categorized_EN.txt	PIG	FarmAnimals	3	1	19	[0, 0, 0]	n/a	0	0	0	n/a	n/a	0.0	0	0	0	catFR2	0	R1157C
1935.155	1.6	1108224	WORD	n/a	wordpools/wordpool_categorized_EN.txt	HEN	FarmAnimals	4	1	19	[0, 0, 0]	n/a	0	0	0	n/a	n/a	0.0	0	0	0	catFR2	0	R1157C
1937.739	1.6	1109516	WORD	n/a	wordpools/wordpool_categorized_EN.txt	CARDINAL	Birds	5	1	19	[0, 0, 0]	n/a	0	0	0	n/a	n/a	0.0	0	0	0	catFR2	0	R1157C
1940.139	1.6	1110716	WORD	n/a	wordpools/wordpool_categorized_EN.txt	FINCH	Birds	6	1	19	[0, 0, 0]	n/a	0	0	0	n/a	n/a	0.0	0	0	0	catFR2	0	R1157C
1942.641	1.6	1111967	WORD	n/a	wordpools/wordpool_categorized_EN.txt	VIOLIN	Instruments	7	0	19	[0, 0, 0]	n/a	0	0	0	n/a	n/a	0.0	0	0	0	catFR2	0	R1157C
1945.023	1.6	1113158	WORD	n/a	wordpools/wordpool_categorized_EN.txt	CELLO	Instruments	8	0	19	[0, 0, 0]	n/a	0	0	0	n/a	n/a	0.0	0	0	0	catFR2	0	R1157C
1947.625	1.6	1114459	WORD	n/a	wordpools/wordpool_categorized_EN.txt	HAWK	Birds	9	1	19	[0, 0, 0]	n/a	0	0	0	n/a	n/a	0.0	0	0	0	catFR2	0	R1157C
1950.174	1.6	1115733	WORD	n/a	wordpools/wordpool_categorized_EN.txt	DUCK	Birds	10	0	19	[0, 0, 0]	n/a	0	0	0	n/a	n/a	0.0	0	0	0	catFR2	0	R1157C
1952.542	1.6	1116917	WORD	n/a	wordpools/wordpool_categorized_EN.txt	CALF	FarmAnimals	11	0	19	[0, 0, 0]	n/a	0	0	0	n/a	n/a	0.0	0	0	0	catFR2	0	R1157C
1955.058	1.6	1118175	WORD	n/a	wordpools/wordpool_categorized_EN.txt	CHICKEN	FarmAnimals	12	0	19	[0, 0, 0]	n/a	0	0	0	n/a	n/a	0.0	0	0	0	catFR2	0	R1157C
1956.66	0.001	1118976	DISTRACT_START	n/a	n/a	n/a	n/a	-999	0	19	[0, 0, 0]	n/a	0	0	0	n/a	n/a	0.0	0	0	0	catFR2	0	R1157C
1956.661	0.015	1118976	START	n/a	n/a	n/a	n/a	-999	0	19	[-999, -999, -999]	n/a	0	0	0	n/a	n/a	0.0	0	0	0	catFR2	0	R1157C
1956.676	2.718	1118984	PROB	2.688	n/a	n/a	n/a	-999	0	19	[2, 2, 3]	7	0	0	0	n/a	n/a	0.0	0	0	0	catFR2	0	R1157C
1959.394	2.483	1120343	PROB	2.45	n/a	n/a	n/a	-999	0	19	[8, 1, 9]	18	0	0	0	n/a	n/a	0.0	0	0	0	catFR2	0	R1157C
1961.877	3.668	1121584	PROB	3.639	n/a	n/a	n/a	-999	0	19	[5, 6, 3]	14	0	0	0	n/a	n/a	0.0	0	0	0	catFR2	0	R1157C
1965.545	9.051	1123418	PROB	9.019	n/a	n/a	n/a	-999	0	19	[9, 5, 1]	15	0	0	0	n/a	n/a	0.0	0	0	0	catFR2	0	R1157C
1974.596	2.728	1127943	PROB	2.728	n/a	n/a	n/a	-999	0	19	[2, 1, 6]	9	0	0	0	n/a	n/a	0.0	0	0	0	catFR2	0	R1157C
1977.324	0.006	1129307	STOP	n/a	n/a	n/a	n/a	-999	0	19	[-999, -999, -999]	n/a	0	0	0	n/a	n/a	0.0	0	0	0	catFR2	0	R1157C
1977.33	1.202	1129310	DISTRACT_END	n/a	n/a	n/a	n/a	-999	0	19	[0, 0, 0]	n/a	0	0	0	n/a	n/a	0.0	0	0	0	catFR2	0	R1157C
1978.532	3.884	1129911	REC_START	n/a	n/a	n/a	n/a	-999	0	19	[0, 0, 0]	n/a	0	0	0	n/a	n/a	0.0	0	0	0	catFR2	0	R1157C
1982.416	0.68	1131853	REC_WORD	3.884	n/a	CARDINAL	Birds	5	1	19	[0, 0, 0]	n/a	0	0	0	n/a	n/a	0.0	0	0	0	catFR2	0	R1157C
1983.096	1.034	1132193	REC_WORD	4.564	n/a	HAWK	Birds	9	1	19	[0, 0, 0]	n/a	0	0	0	n/a	n/a	0.0	0	0	0	catFR2	0	R1157C
1984.13	3.964	1132710	REC_WORD	5.598	n/a	FINCH	Birds	6	1	19	[0, 0, 0]	n/a	0	0	0	n/a	n/a	0.0	0	0	0	catFR2	0	R1157C
1988.094	7.143	1134691	REC_WORD	9.562	n/a	PIG	FarmAnimals	3	1	19	[0, 0, 0]	n/a	0	0	0	n/a	n/a	0.0	0	0	0	catFR2	0	R1157C
1995.237	13.306	1138263	REC_WORD	16.705	n/a	HEN	FarmAnimals	4	1	19	[0, 0, 0]	n/a	0	0	0	n/a	n/a	0.0	0	0	0	catFR2	0	R1157C
2008.543	1.609	1144915	REC_END	n/a	n/a	n/a	n/a	-999	0	19	[0, 0, 0]	n/a	0	0	0	n/a	n/a	0.0	0	0	0	catFR2	0	R1157C
2010.152	0.0	1145719	TRIAL	n/a	n/a	n/a	n/a	-999	0	20	[0, 0, 0]	n/a	0	1	0	n/a	n/a	0.0	0	0	0	catFR2	0	R1157C
2010.152	10.0	1145719	COUNTDOWN_START	n/a	n/a	n/a	n/a	-999	0	20	[0, 0, 0]	n/a	0	1	0	n/a	n/a	0.0	0	0	0	catFR2	0	R1157C
2020.58	0.008	1150933	COUNTDOWN_END	n/a	n/a	n/a	n/a	-999	0	20	[0, 0, 0]	n/a	0	1	0	n/a	n/a	0.0	0	0	0	catFR2	0	R1157C
2020.588	1.6	1150937	ORIENT	n/a	n/a	n/a	n/a	-999	0	20	[0, 0, 0]	n/a	0	1	0	n/a	n/a	0.0	0	0	0	catFR2	0	R1157C
2024.105	1.6	1152695	WORD	n/a	wordpools/wordpool_categorized_EN.txt	CHIMPANZEE	Zoo	1	1	20	[0, 0, 0]	n/a	0	1	0	n/a	n/a	0.0	0	0	0	catFR2	0	R1157C
2026.473	1.6	1153879	WORD	n/a	wordpools/wordpool_categorized_EN.txt	PANDA	Zoo	2	0	20	[0, 0, 0]	n/a	0	1	0	n/a	n/a	0.0	0	0	0	catFR2	0	R1157C
2028.816	4.6	1155050	STIM_ON	n/a	n/a	n/a	n/a	-999	0	20	[0, 0, 0]	n/a	1	1	4600	HH1	HH2	500.0	50	230	300	catFR2	0	R1157C
2029.022	1.6	1155153	WORD	n/a	wordpools/wordpool_categorized_EN.txt	CLOUD	Weather	3	1	20	[0, 0, 0]	n/a	1	1	4600	HH1	HH2	500.0	50	230	300	catFR2	0	R1157C
2031.574	1.6	1156429	WORD	n/a	wordpools/wordpool_categorized_EN.txt	HURRICANE	Weather	4	1	20	[0, 0, 0]	n/a	1	1	4600	HH1	HH2	500.0	50	230	300	catFR2	0	R1157C
2034.157	1.6	1157721	WORD	n/a	wordpools/wordpool_categorized_EN.txt	BLUEBERRY	Fruit	5	1	20	[0, 0, 0]	n/a	0	1	0	n/a	n/a	0.0	0	0	0	catFR2	0	R1157C
2036.591	1.6	1158938	WORD	n/a	wordpools/wordpool_categorized_EN.txt	GRAPE	Fruit	6	0	20	[0, 0, 0]	n/a	0	1	0	n/a	n/a	0.0	0	0	0	catFR2	0	R1157C
2038.944	4.6	1160114	STIM_ON	n/a	n/a	n/a	n/a	-999	0	20	[0, 0, 0]	n/a	1	1	4600	HH1	HH2	500.0	50	230	300	catFR2	0	R1157C
2039.158	1.6	1160221	WORD	n/a	wordpools/wordpool_categorized_EN.txt	CHEETAH	Zoo	7	1	20	[0, 0, 0]	n/a	1	1	4600	HH1	HH2	500.0	50	230	300	catFR2	0	R1157C
2041.609	1.6	1161446	WORD	n/a	wordpools/wordpool_categorized_EN.txt	ORANGUTAN	Zoo	8	1	20	[0, 0, 0]	n/a	1	1	4600	HH1	HH2	500.0	50	230	300	catFR2	0	R1157C
2044.059	1.6	1162671	WORD	n/a	wordpools/wordpool_categorized_EN.txt	PLUM	Fruit	9	1	20	[0, 0, 0]	n/a	0	1	0	n/a	n/a	0.0	0	0	0	catFR2	0	R1157C
2046.577	1.6	1163930	WORD	n/a	wordpools/wordpool_categorized_EN.txt	APPLE	Fruit	10	0	20	[0, 0, 0]	n/a	0	1	0	n/a	n/a	0.0	0	0	0	catFR2	0	R1157C
2048.887	4.6	1165085	STIM_ON	n/a	n/a	n/a	n/a	-999	0	20	[0, 0, 0]	n/a	1	1	4600	HH1	HH2	500.0	50	230	300	catFR2	0	R1157C
2049.093	1.6	1165188	WORD	n/a	wordpools/wordpool_categorized_EN.txt	HUMIDITY	Weather	11	0	20	[0, 0, 0]	n/a	1	1	4600	HH1	HH2	500.0	50	230	300	catFR2	0	R1157C
2051.661	1.6	1166472	WORD	n/a	wordpools/wordpool_categorized_EN.txt	WIND	Weather	12	0	20	[0, 0, 0]	n/a	1	1	4600	HH1	HH2	500.0	50	230	300	catFR2	0	R1157C
2053.278	0.001	1167280	DISTRACT_START	n/a	n/a	n/a	n/a	-999	0	20	[0, 0, 0]	n/a	0	1	0	n/a	n/a	0.0	0	0	0	catFR2	0	R1157C
2053.279	0.016	1167281	START	n/a	n/a	n/a	n/a	-999	0	20	[-999, -999, -999]	n/a	0	1	0	n/a	n/a	0.0	0	0	0	catFR2	0	R1157C
2053.295	4.484	1167289	PROB	4.453	n/a	n/a	n/a	-999	0	20	[3, 6, 4]	13	0	1	0	n/a	n/a	0.0	0	0	0	catFR2	0	R1157C
2057.779	2.434	1169531	PROB	2.409	n/a	n/a	n/a	-999	0	20	[1, 4, 4]	9	0	1	0	n/a	n/a	0.0	0	0	0	catFR2	0	R1157C
2060.213	6.384	1170747	PROB	6.359	n/a	n/a	n/a	-999	0	20	[7, 9, 5]	21	0	1	0	n/a	n/a	0.0	0	0	0	catFR2	0	R1157C
2066.597	2.5	1173939	PROB	2.478	n/a	n/a	n/a	-999	0	20	[8, 1, 9]	18	0	1	0	n/a	n/a	0.0	0	0	0	catFR2	0	R1157C
2069.097	7.123	1175189	PROB	7.123	n/a	n/a	n/a	-999	0	20	[5, 9, 8]	22	0	1	0	n/a	n/a	0.0	0	0	0	catFR2	0	R1157C
2076.22	0.012	1178750	STOP	n/a	n/a	n/a	n/a	-999	0	20	[-999, -999, -999]	n/a	0	1	0	n/a	n/a	0.0	0	0	0	catFR2	0	R1157C
2076.232	1.118	1178756	DISTRACT_END	n/a	n/a	n/a	n/a	-999	0	20	[0, 0, 0]	n/a	0	1	0	n/a	n/a	0.0	0	0	0	catFR2	0	R1157C
2077.35	1.266	1179315	REC_START	n/a	n/a	n/a	n/a	-999	0	20	[0, 0, 0]	n/a	0	1	0	n/a	n/a	0.0	0	0	0	catFR2	0	R1157C
2078.616	0.899	1179948	REC_WORD	1.266	n/a	CHIMPANZEE	Zoo	1	1	20	[0, 0, 0]	n/a	0	1	0	n/a	n/a	0.0	0	0	0	catFR2	0	R1157C
2079.515	1.309	1180398	REC_WORD	2.165	n/a	ORANGUTAN	Zoo	8	1	20	[0, 0, 0]	n/a	0	1	0	n/a	n/a	0.0	0	0	0	catFR2	0	R1157C
2080.824	8.473	1181052	REC_WORD	3.474	n/a	CHEETAH	Zoo	7	1	20	[0, 0, 0]	n/a	0	1	0	n/a	n/a	0.0	0	0	0	catFR2	0	R1157C
2089.297	2.244	1185288	REC_WORD	11.947	n/a	BLUEBERRY	Fruit	5	1	20	[0, 0, 0]	n/a	0	1	0	n/a	n/a	0.0	0	0	0	catFR2	0	R1157C
2091.541	4.974	1186410	REC_WORD	14.191	n/a	PLUM	Fruit	9	1	20	[0, 0, 0]	n/a	0	1	0	n/a	n/a	0.0	0	0	0	catFR2	0	R1157C
2096.515	0.696	1188897	REC_WORD	19.165	n/a	HURRICANE	Weather	4	1	20	[0, 0, 0]	n/a	0	1	0	n/a	n/a	0.0	0	0	0	catFR2	0	R1157C
2097.211	10.15	1189245	REC_WORD	19.861	n/a	CLOUD	Weather	3	1	20	[0, 0, 0]	n/a	0	1	0	n/a	n/a	0.0	0	0	0	catFR2	0	R1157C
2107.361	1.494	1194319	REC_END	n/a	n/a	n/a	n/a	-999	0	20	[0, 0, 0]	n/a	0	1	0	n/a	n/a	0.0	0	0	0	catFR2	0	R1157C
2108.855	0.0	1195066	TRIAL	n/a	n/a	n/a	n/a	-999	0	21	[0, 0, 0]	n/a	0	1	0	n/a	n/a	0.0	0	0	0	catFR2	0	R1157C
2108.855	10.0	1195066	COUNTDOWN_START	n/a	n/a	n/a	n/a	-999	0	21	[0, 0, 0]	n/a	0	1	0	n/a	n/a	0.0	0	0	0	catFR2	0	R1157C
2119.283	0.007	1200280	COUNTDOWN_END	n/a	n/a	n/a	n/a	-999	0	21	[0, 0, 0]	n/a	0	1	0	n/a	n/a	0.0	0	0	0	catFR2	0	R1157C
2119.29	1.6	1200283	ORIENT	n/a	n/a	n/a	n/a	-999	0	21	[0, 0, 0]	n/a	0	1	0	n/a	n/a	0.0	0	0	0	catFR2	0	R1157C
2123.208	1.6	1202242	WORD	n/a	wordpools/wordpool_categorized_EN.txt	GRATER	KitchenTools	1	0	21	[0, 0, 0]	n/a	0	1	0	n/a	n/a	0.0	0	0	0	catFR2	0	R1157C
2125.625	1.6	1203450	WORD	n/a	wordpools/wordpool_categorized_EN.txt	PEELER	KitchenTools	2	0	21	[0, 0, 0]	n/a	0	1	0	n/a	n/a	0.0	0	0	0	catFR2	0	R1157C
2127.992	4.6	1204634	STIM_ON	n/a	n/a	n/a	n/a	-999	0	21	[0, 0, 0]	n/a	1	1	4600	HH1	HH2	500.0	50	230	300	catFR2	0	R1157C
2128.209	1.6	1204742	WORD	n/a	wordpools/wordpool_categorized_EN.txt	HAND	BodyParts	3	1	21	[0, 0, 0]	n/a	1	1	4600	HH1	HH2	500.0	50	230	300	catFR2	0	R1157C
2130.776	1.6	1206026	WORD	n/a	wordpools/wordpool_categorized_EN.txt	EAR	BodyParts	4	0	21	[0, 0, 0]	n/a	1	1	4600	HH1	HH2	500.0	50	230	300	catFR2	0	R1157C
2133.293	1.6	1207284	WORD	n/a	wordpools/wordpool_categorized_EN.txt	THUNDERSTORM	Weather	5	1	21	[0, 0, 0]	n/a	0	1	0	n/a	n/a	0.0	0	0	0	catFR2	0	R1157C
2135.877	1.6	1208576	WORD	n/a	wordpools/wordpool_categorized_EN.txt	THUNDER	Weather	6	0	21	[0, 0, 0]	n/a	0	1	0	n/a	n/a	0.0	0	0	0	catFR2	0	R1157C
2138.163	4.6	1209719	STIM_ON	n/a	n/a	n/a	n/a	-999	0	21	[0, 0, 0]	n/a	1	1	4600	HH1	HH2	500.0	50	230	300	catFR2	0	R1157C
2138.377	1.6	1209826	WORD	n/a	wordpools/wordpool_categorized_EN.txt	KNIFE	KitchenTools	7	0	21	[0, 0, 0]	n/a	1	1	4600	HH1	HH2	500.0	50	230	300	catFR2	0	R1157C
2140.961	1.6	1211118	WORD	n/a	wordpools/wordpool_categorized_EN.txt	SPOON	KitchenTools	8	0	21	[0, 0, 0]	n/a	1	1	4600	HH1	HH2	500.0	50	230	300	catFR2	0	R1157C
2143.545	1.6	1212410	WORD	n/a	wordpools/wordpool_categorized_EN.txt	TORNADO	Weather	9	1	21	[0, 0, 0]	n/a	0	1	0	n/a	n/a	0.0	0	0	0	catFR2	0	R1157C
2146.161	1.6	1213717	WORD	n/a	wordpools/wordpool_categorized_EN.txt	FOG	Weather	10	1	21	[0, 0, 0]	n/a	0	1	0	n/a	n/a	0.0	0	0	0	catFR2	0	R1157C
2148.338	4.6	1214806	STIM_ON	n/a	n/a	n/a	n/a	-999	0	21	[0, 0, 0]	n/a	1	1	4600	HH1	HH2	500.0	50	230	300	catFR2	0	R1157C
2148.546	1.6	1214910	WORD	n/a	wordpools/wordpool_categorized_EN.txt	ELBOW	BodyParts	11	1	21	[0, 0, 0]	n/a	1	1	4600	HH1	HH2	500.0	50	230	300	catFR2	0	R1157C
2151.045	1.6	1216159	WORD	n/a	wordpools/wordpool_categorized_EN.txt	TOE	BodyParts	12	1	21	[0, 0, 0]	n/a	1	1	4600	HH1	HH2	500.0	50	230	300	catFR2	0	R1157C
2152.646	0.001	1216960	DISTRACT_START	n/a	n/a	n/a	n/a	-999	0	21	[0, 0, 0]	n/a	0	1	0	n/a	n/a	0.0	0	0	0	catFR2	0	R1157C
2152.647	0.016	1216960	START	n/a	n/a	n/a	n/a	-999	0	21	[-999, -999, -999]	n/a	0	1	0	n/a	n/a	0.0	0	0	0	catFR2	0	R1157C
2152.663	5.001	1216968	PROB	4.965	n/a	n/a	n/a	-999	0	21	[7, 2, 8]	17	0	1	0	n/a	n/a	0.0	0	0	0	catFR2	0	R1157C
2157.664	2.968	1219468	PROB	2.94	n/a	n/a	n/a	-999	0	21	[1, 2, 5]	8	0	1	0	n/a	n/a	0.0	0	0	0	catFR2	0	R1157C
2160.632	2.75	1220952	PROB	2.716	n/a	n/a	n/a	-999	0	21	[7, 3, 2]	12	0	1	0	n/a	n/a	0.0	0	0	0	catFR2	0	R1157C
2163.382	2.633	1222327	PROB	2.613	n/a	n/a	n/a	-999	0	21	[7, 1, 8]	16	0	1	0	n/a	n/a	0.0	0	0	0	catFR2	0	R1157C
2166.015	2.685	1223644	PROB	2.661	n/a	n/a	n/a	-999	0	21	[1, 2, 3]	6	0	1	0	n/a	n/a	0.0	0	0	0	catFR2	0	R1157C
2168.7	3.217	1224986	PROB	3.192	n/a	n/a	n/a	-999	0	21	[7, 3, 8]	18	0	1	0	n/a	n/a	0.0	0	0	0	catFR2	0	R1157C
2171.917	3.447	1226594	PROB	3.447	n/a	n/a	n/a	-999	0	21	[4, 2, 5]	11	0	1	0	n/a	n/a	0.0	0	0	0	catFR2	0	R1157C
2175.364	0.003	1228318	STOP	n/a	n/a	n/a	n/a	-999	0	21	[-999, -999, -999]	n/a	0	1	0	n/a	n/a	0.0	0	0	0	catFR2	0	R1157C
2175.367	1.185	1228319	DISTRACT_END	n/a	n/a	n/a	n/a	-999	0	21	[0, 0, 0]	n/a	0	1	0	n/a	n/a	0.0	0	0	0	catFR2	0	R1157C
2176.552	0.732	1228912	REC_START	n/a	n/a	n/a	n/a	-999	0	21	[0, 0, 0]	n/a	0	1	0	n/a	n/a	0.0	0	0	0	catFR2	0	R1157C
2177.284	1.322	1229277	REC_WORD	0.732	n/a	THUNDERSTORM	Weather	5	1	21	[0, 0, 0]	n/a	0	1	0	n/a	n/a	0.0	0	0	0	catFR2	0	R1157C
2178.606	0.644	1229938	REC_WORD	2.054	n/a	TORNADO	Weather	9	1	21	[0, 0, 0]	n/a	0	1	0	n/a	n/a	0.0	0	0	0	catFR2	0	R1157C
2179.25	13.012	1230260	REC_WORD	2.698	n/a	FOG	Weather	10	1	21	[0, 0, 0]	n/a	0	1	0	n/a	n/a	0.0	0	0	0	catFR2	0	R1157C
2192.262	0.602	1236766	REC_WORD	15.71	n/a	ELBOW	BodyParts	11	1	21	[0, 0, 0]	n/a	0	1	0	n/a	n/a	0.0	0	0	0	catFR2	0	R1157C
2192.864	0.805	1237067	REC_WORD	16.312	n/a	HAND	BodyParts	3	1	21	[0, 0, 0]	n/a	0	1	0	n/a	n/a	0.0	0	0	0	catFR2	0	R1157C
2193.669	12.894	1237469	REC_WORD	17.117	n/a	TOE	BodyParts	12	1	21	[0, 0, 0]	n/a	0	1	0	n/a	n/a	0.0	0	0	0	catFR2	0	R1157C
2206.563	1.61	1243916	REC_END	n/a	n/a	n/a	n/a	-999	0	21	[0, 0, 0]	n/a	0	1	0	n/a	n/a	0.0	0	0	0	catFR2	0	R1157C
2208.173	0.0	1244721	TRIAL	n/a	n/a	n/a	n/a	-999	0	22	[0, 0, 0]	n/a	0	1	0	n/a	n/a	0.0	0	0	0	catFR2	0	R1157C
2208.173	10.0	1244721	COUNTDOWN_START	n/a	n/a	n/a	n/a	-999	0	22	[0, 0, 0]	n/a	0	1	0	n/a	n/a	0.0	0	0	0	catFR2	0	R1157C
2218.601	0.008	1249934	COUNTDOWN_END	n/a	n/a	n/a	n/a	-999	0	22	[0, 0, 0]	n/a	0	1	0	n/a	n/a	0.0	0	0	0	catFR2	0	R1157C
2218.609	1.6	1249938	ORIENT	n/a	n/a	n/a	n/a	-999	0	22	[0, 0, 0]	n/a	0	1	0	n/a	n/a	0.0	0	0	0	catFR2	0	R1157C
2222.1	4.6	1251683	STIM_ON	n/a	n/a	n/a	n/a	-999	0	22	[0, 0, 0]	n/a	1	1	4600	HH1	HH2	500.0	50	230	300	catFR2	0	R1157C
2222.31	1.6	1251788	WORD	n/a	wordpools/wordpool_categorized_EN.txt	GUITAR	Instruments	1	1	22	[0, 0, 0]	n/a	1	1	4600	HH1	HH2	500.0	50	230	300	catFR2	0	R1157C
2224.81	1.6	1253038	WORD	n/a	wordpools/wordpool_categorized_EN.txt	TROMBONE	Instruments	2	1	22	[0, 0, 0]	n/a	1	1	4600	HH1	HH2	500.0	50	230	300	catFR2	0	R1157C
2227.261	1.6	1254264	WORD	n/a	wordpools/wordpool_categorized_EN.txt	FOREST	Landscapes	3	0	22	[0, 0, 0]	n/a	0	1	0	n/a	n/a	0.0	0	0	0	catFR2	0	R1157C
2229.744	1.6	1255505	WORD	n/a	wordpools/wordpool_categorized_EN.txt	MOUNTAIN	Landscapes	4	0	22	[0, 0, 0]	n/a	0	1	0	n/a	n/a	0.0	0	0	0	catFR2	0	R1157C
2232.132	4.6	1256699	STIM_ON	n/a	n/a	n/a	n/a	-999	0	22	[0, 0, 0]	n/a	1	1	4600	HH1	HH2	500.0	50	230	300	catFR2	0	R1157C
2232.345	1.6	1256805	WORD	n/a	wordpools/wordpool_categorized_EN.txt	SUNFLOWER	Flowers	5	1	22	[0, 0, 0]	n/a	1	1	4600	HH1	HH2	500.0	50	230	300	catFR2	0	R1157C
2234.829	1.6	1258047	WORD	n/a	wordpools/wordpool_categorized_EN.txt	DAFFODIL	Flowers	6	0	22	[0, 0, 0]	n/a	1	1	4600	HH1	HH2	500.0	50	230	300	catFR2	0	R1157C
2237.329	1.6	1259297	WORD	n/a	wordpools/wordpool_categorized_EN.txt	ISLAND	Landscapes	7	0	22	[0, 0, 0]	n/a	0	1	0	n/a	n/a	0.0	0	0	0	catFR2	0	R1157C
2239.78	1.6	1260523	WORD	n/a	wordpools/wordpool_categorized_EN.txt	HILLS	Landscapes	8	0	22	[0, 0, 0]	n/a	0	1	0	n/a	n/a	0.0	0	0	0	catFR2	0	R1157C
2242.173	4.6	1261719	STIM_ON	n/a	n/a	n/a	n/a	-999	0	22	[0, 0, 0]	n/a	1	1	4600	HH1	HH2	500.0	50	230	300	catFR2	0	R1157C
2242.38	1.6	1261822	WORD	n/a	wordpools/wordpool_categorized_EN.txt	TRUMPET	Instruments	9	0	22	[0, 0, 0]	n/a	1	1	4600	HH1	HH2	500.0	50	230	300	catFR2	0	R1157C
2244.847	1.6	1263056	WORD	n/a	wordpools/wordpool_categorized_EN.txt	BANJO	Instruments	10	1	22	[0, 0, 0]	n/a	1	1	4600	HH1	HH2	500.0	50	230	300	catFR2	0	R1157C
2247.348	1.6	1264306	WORD	n/a	wordpools/wordpool_categorized_EN.txt	LILY	Flowers	11	0	22	[0, 0, 0]	n/a	0	1	0	n/a	n/a	0.0	0	0	0	catFR2	0	R1157C
2249.865	1.6	1265565	WORD	n/a	wordpools/wordpool_categorized_EN.txt	ORCHID	Flowers	12	0	22	[0, 0, 0]	n/a	0	1	0	n/a	n/a	0.0	0	0	0	catFR2	0	R1157C
2251.482	0.001	1266373	DISTRACT_START	n/a	n/a	n/a	n/a	-999	0	22	[0, 0, 0]	n/a	0	1	0	n/a	n/a	0.0	0	0	0	catFR2	0	R1157C
2251.483	0.016	1266373	START	n/a	n/a	n/a	n/a	-999	0	22	[-999, -999, -999]	n/a	0	1	0	n/a	n/a	0.0	0	0	0	catFR2	0	R1157C
2251.499	3.516	1266381	PROB	3.489	n/a	n/a	n/a	-999	0	22	[6, 2, 8]	16	0	1	0	n/a	n/a	0.0	0	0	0	catFR2	0	R1157C
2255.015	4.318	1268139	PROB	4.285	n/a	n/a	n/a	-999	0	22	[1, 5, 7]	13	0	1	0	n/a	n/a	0.0	0	0	0	catFR2	0	R1157C
2259.333	3.984	1270298	PROB	3.959	n/a	n/a	n/a	-999	0	22	[1, 8, 7]	16	0	1	0	n/a	n/a	0.0	0	0	0	catFR2	0	R1157C
2263.317	3.767	1272290	PROB	3.742	n/a	n/a	n/a	-999	0	22	[3, 8, 8]	19	0	1	0	n/a	n/a	0.0	0	0	0	catFR2	0	R1157C
2267.084	3.385	1274173	PROB	3.36	n/a	n/a	n/a	-999	0	22	[3, 2, 4]	9	0	1	0	n/a	n/a	0.0	0	0	0	catFR2	0	R1157C
2270.469	3.199	1275866	PROB	3.199	n/a	n/a	n/a	-999	0	22	[5, 3, 4]	12	0	1	0	n/a	n/a	0.0	0	0	0	catFR2	0	R1157C
2273.668	0.018	1277465	STOP	n/a	n/a	n/a	n/a	-999	0	22	[-999, -999, -999]	n/a	0	1	0	n/a	n/a	0.0	0	0	0	catFR2	0	R1157C
2273.686	1.218	1277474	DISTRACT_END	n/a	n/a	n/a	n/a	-999	0	22	[0, 0, 0]	n/a	0	1	0	n/a	n/a	0.0	0	0	0	catFR2	0	R1157C
