onset	duration	sample	trial_type	response_time	stim_file	item_name	category	serialpos	recalled	list	test	answer	stimulation	stim_list	stim_duration	anode_label	cathode_label	amplitude	pulse_freq	n_pulses	pulse_width	experiment	session	subject
0.0	81.191	19228	SESS_START	n/a	n/a	n/a	n/a	-999	0	-999	[0, 0, 0]	n/a	0	0	0	n/a	n/a	0.0	0	0	0	catFR2	2	R1036M
81.191	10.0	59820	COUNTDOWN_START	n/a	n/a	n/a	n/a	-999	0	-999	[0, 0, 0]	n/a	0	0	0	n/a	n/a	0.0	0	0	0	catFR2	2	R1036M
91.619	3.525	65034	COUNTDOWN_END	n/a	n/a	n/a	n/a	-999	0	-999	[0, 0, 0]	n/a	0	0	0	n/a	n/a	0.0	0	0	0	catFR2	2	R1036M
95.144	1.6	66796	PRACTICE_WORD	n/a	n/a	CHEST	n/a	-999	0	1	[0, 0, 0]	n/a	0	0	0	n/a	n/a	0.0	0	0	0	catFR2	2	R1036M
97.528	1.6	67988	PRACTICE_WORD	n/a	n/a	WATCH	n/a	-999	0	2	[0, 0, 0]	n/a	0	0	0	n/a	n/a	0.0	0	0	0	catFR2	2	R1036M
99.961	1.6	69205	PRACTICE_WORD	n/a	n/a	COTTON	n/a	-999	0	3	[0, 0, 0]	n/a	0	0	0	n/a	n/a	0.0	0	0	0	catFR2	2	R1036M
102.428	1.6	70438	PRACTICE_WORD	n/a	n/a	RING	n/a	-999	0	4	[0, 0, 0]	n/a	0	0	0	n/a	n/a	0.0	0	0	0	catFR2	2	R1036M
104.862	1.6	71655	PRACTICE_WORD	n/a	n/a	TONGUE	n/a	-999	0	5	[0, 0, 0]	n/a	0	0	0	n/a	n/a	0.0	0	0	0	catFR2	2	R1036M
107.346	1.6	72897	PRACTICE_WORD	n/a	n/a	FLOOD	n/a	-999	0	6	[0, 0, 0]	n/a	0	0	0	n/a	n/a	0.0	0	0	0	catFR2	2	R1036M
109.913	1.6	74180	PRACTICE_WORD	n/a	n/a	BEAM	n/a	-999	0	7	[0, 0, 0]	n/a	0	0	0	n/a	n/a	0.0	0	0	0	catFR2	2	R1036M
112.48	1.6	75464	PRACTICE_WORD	n/a	n/a	IRON	n/a	-999	0	8	[0, 0, 0]	n/a	0	0	0	n/a	n/a	0.0	0	0	0	catFR2	2	R1036M
115.048	1.6	76748	PRACTICE_WORD	n/a	n/a	RHINO	n/a	-999	0	9	[0, 0, 0]	n/a	0	0	0	n/a	n/a	0.0	0	0	0	catFR2	2	R1036M
117.447	1.6	77947	PRACTICE_WORD	n/a	n/a	ATTIC	n/a	-999	0	10	[0, 0, 0]	n/a	0	0	0	n/a	n/a	0.0	0	0	0	catFR2	2	R1036M
119.999	1.6	79223	PRACTICE_WORD	n/a	n/a	WAGON	n/a	-999	0	11	[0, 0, 0]	n/a	0	0	0	n/a	n/a	0.0	0	0	0	catFR2	2	R1036M
122.549	1.6	80498	PRACTICE_WORD	n/a	n/a	CAMEL	n/a	-999	0	12	[0, 0, 0]	n/a	0	0	0	n/a	n/a	0.0	0	0	0	catFR2	2	R1036M
124.166	0.0	81306	PRACTICE_DISTRACT_START	n/a	n/a	n/a	n/a	-999	0	-999	[0, 0, 0]	n/a	0	0	0	n/a	n/a	0.0	0	0	0	catFR2	2	R1036M
124.166	0.017	81306	START	n/a	n/a	n/a	n/a	-999	0	-1	[-999, -999, -999]	n/a	0	-999	0	n/a	n/a	0.0	0	0	0	catFR2	2	R1036M
124.183	4.867	81315	PROB	4.839	n/a	n/a	n/a	-999	0	-1	[5, 8, 5]	18	0	-999	0	n/a	n/a	0.0	0	0	0	catFR2	2	R1036M
129.05	3.518	83748	PROB	3.492	n/a	n/a	n/a	-999	0	-1	[5, 1, 5]	11	0	-999	0	n/a	n/a	0.0	0	0	0	catFR2	2	R1036M
132.568	3.817	85507	PROB	3.782	n/a	n/a	n/a	-999	0	-1	[8, 3, 8]	24	0	-999	0	n/a	n/a	0.0	0	0	0	catFR2	2	R1036M
136.385	3.401	87416	PROB	3.365	n/a	n/a	n/a	-999	0	-1	[2, 8, 1]	17	0	-999	0	n/a	n/a	0.0	0	0	0	catFR2	2	R1036M
139.786	7.308	89116	PROB	7.308	n/a	n/a	n/a	-999	0	-1	[9, 6, 4]	24	0	-999	0	n/a	n/a	0.0	0	0	0	catFR2	2	R1036M
147.094	0.01	92770	STOP	n/a	n/a	n/a	n/a	-999	0	-1	[-999, -999, -999]	n/a	0	-999	0	n/a	n/a	0.0	0	0	0	catFR2	2	R1036M
147.104	0.569	92775	PRACTICE_DISTRACT_END	n/a	n/a	n/a	n/a	-999	0	-999	[0, 0, 0]	n/a	0	0	0	n/a	n/a	0.0	0	0	0	catFR2	2	R1036M
147.673	30.514	93059	PRACTICE_REC_START	n/a	n/a	n/a	n/a	-999	0	-999	[0, 0, 0]	n/a	0	0	0	n/a	n/a	0.0	0	0	0	catFR2	2	R1036M
178.187	20.327	108315	PRACTICE_REC_END	n/a	n/a	n/a	n/a	-999	0	-999	[0, 0, 0]	n/a	0	0	0	n/a	n/a	0.0	0	0	0	catFR2	2	R1036M
198.514	0.0	118478	TRIAL	n/a	n/a	n/a	n/a	-999	0	1	[0, 0, 0]	n/a	0	1	0	n/a	n/a	0.0	0	0	0	catFR2	2	R1036M
198.514	10.0	118478	COUNTDOWN_START	n/a	n/a	n/a	n/a	-999	0	1	[0, 0, 0]	n/a	0	1	0	n/a	n/a	0.0	0	0	0	catFR2	2	R1036M
208.942	0.007	123692	COUNTDOWN_END	n/a	n/a	n/a	n/a	-999	0	1	[0, 0, 0]	n/a	0	1	0	n/a	n/a	0.0	0	0	0	catFR2	2	R1036M
208.949	1.6	123695	ORIENT	n/a	n/a	n/a	n/a	-999	0	1	[0, 0, 0]	n/a	0	1	0	n/a	n/a	0.0	0	0	0	catFR2	2	R1036M
212.354	4.6	125398	STIM_ON	n/a	n/a	n/a	n/a	-999	0	1	[0, 0, 0]	n/a	1	1	4600	LATD1	LATD2	500.0	50	230	300	catFR2	2	R1036M
212.567	1.6	125504	WORD	n/a	wordpools/wordpool_categorized_EN.txt	TRAIN	Vehicles	1	0	1	[0, 0, 0]	n/a	1	1	4600	LATD1	LATD2	500.0	50	230	300	catFR2	2	R1036M
215.15	1.6	126795	WORD	n/a	wordpools/wordpool_categorized_EN.txt	JEEP	Vehicles	2	0	1	[0, 0, 0]	n/a	1	1	4600	LATD1	LATD2	500.0	50	230	300	catFR2	2	R1036M
217.767	1.6	128104	WORD	n/a	wordpools/wordpool_categorized_EN.txt	SHELF	Furniture	3	0	1	[0, 0, 0]	n/a	0	1	0	n/a	n/a	0.0	0	0	0	catFR2	2	R1036M
220.351	1.6	129396	WORD	n/a	wordpools/wordpool_categorized_EN.txt	RECLINER	Furniture	4	0	1	[0, 0, 0]	n/a	0	1	0	n/a	n/a	0.0	0	0	0	catFR2	2	R1036M
222.672	4.6	130556	STIM_ON	n/a	n/a	n/a	n/a	-999	0	1	[0, 0, 0]	n/a	1	1	4600	LATD1	LATD2	500.0	50	230	300	catFR2	2	R1036M
222.885	1.6	130663	WORD	n/a	wordpools/wordpool_categorized_EN.txt	LION	Zoo	5	0	1	[0, 0, 0]	n/a	1	1	4600	LATD1	LATD2	500.0	50	230	300	catFR2	2	R1036M
225.336	1.6	131888	WORD	n/a	wordpools/wordpool_categorized_EN.txt	ZEBRA	Zoo	6	0	1	[0, 0, 0]	n/a	1	1	4600	LATD1	LATD2	500.0	50	230	300	catFR2	2	R1036M
227.72	1.6	133080	WORD	n/a	wordpools/wordpool_categorized_EN.txt	SOFA	Furniture	7	0	1	[0, 0, 0]	n/a	0	1	0	n/a	n/a	0.0	0	0	0	catFR2	2	R1036M
230.203	1.6	134321	WORD	n/a	wordpools/wordpool_categorized_EN.txt	NIGHTSTAND	Furniture	8	0	1	[0, 0, 0]	n/a	0	1	0	n/a	n/a	0.0	0	0	0	catFR2	2	R1036M
232.577	4.6	135508	STIM_ON	n/a	n/a	n/a	n/a	-999	0	1	[0, 0, 0]	n/a	1	1	4600	LATD1	LATD2	500.0	50	230	300	catFR2	2	R1036M
232.787	1.6	135613	WORD	n/a	wordpools/wordpool_categorized_EN.txt	BIKE	Vehicles	9	0	1	[0, 0, 0]	n/a	1	1	4600	LATD1	LATD2	500.0	50	230	300	catFR2	2	R1036M
235.188	1.6	136814	WORD	n/a	wordpools/wordpool_categorized_EN.txt	VAN	Vehicles	10	0	1	[0, 0, 0]	n/a	1	1	4600	LATD1	LATD2	500.0	50	230	300	catFR2	2	R1036M
237.671	1.6	138055	WORD	n/a	wordpools/wordpool_categorized_EN.txt	ORANGUTAN	Zoo	11	1	1	[0, 0, 0]	n/a	0	1	0	n/a	n/a	0.0	0	0	0	catFR2	2	R1036M
240.255	1.6	139347	WORD	n/a	wordpools/wordpool_categorized_EN.txt	MONKEY	Zoo	12	1	1	[0, 0, 0]	n/a	0	1	0	n/a	n/a	0.0	0	0	0	catFR2	2	R1036M
241.872	0.001	140156	DISTRACT_START	n/a	n/a	n/a	n/a	-999	0	1	[0, 0, 0]	n/a	0	1	0	n/a	n/a	0.0	0	0	0	catFR2	2	R1036M
241.873	0.016	140156	START	n/a	n/a	n/a	n/a	-999	0	1	[-999, -999, -999]	n/a	0	1	0	n/a	n/a	0.0	0	0	0	catFR2	2	R1036M
241.889	4.718	140164	PROB	4.685	n/a	n/a	n/a	-999	0	1	[7, 7, 1]	15	0	1	0	n/a	n/a	0.0	0	0	0	catFR2	2	R1036M
246.607	9.018	142523	PROB	8.982	n/a	n/a	n/a	-999	0	1	[4, 5, 3]	12	0	1	0	n/a	n/a	0.0	0	0	0	catFR2	2	R1036M
255.625	5.001	147032	PROB	4.981	n/a	n/a	n/a	-999	0	1	[4, 2, 2]	8	0	1	0	n/a	n/a	0.0	0	0	0	catFR2	2	R1036M
260.626	5.044	149532	PROB	5.044	n/a	n/a	n/a	-999	0	1	[6, 5, 8]	32	0	1	0	n/a	n/a	0.0	0	0	0	catFR2	2	R1036M
265.67	0.007	152054	STOP	n/a	n/a	n/a	n/a	-999	0	1	[-999, -999, -999]	n/a	0	1	0	n/a	n/a	0.0	0	0	0	catFR2	2	R1036M
265.677	1.117	152057	DISTRACT_END	n/a	n/a	n/a	n/a	-999	0	1	[0, 0, 0]	n/a	0	1	0	n/a	n/a	0.0	0	0	0	catFR2	2	R1036M
266.794	0.765	152616	REC_START	n/a	n/a	n/a	n/a	-999	0	1	[0, 0, 0]	n/a	0	1	0	n/a	n/a	0.0	0	0	0	catFR2	2	R1036M
267.559	2.436	152998	REC_WORD	0.765	n/a	ORANGUTAN	Zoo	11	1	1	[0, 0, 0]	n/a	0	1	0	n/a	n/a	0.0	0	0	0	catFR2	2	R1036M
269.995	2.67	154216	REC_WORD	3.201	n/a	MONKEY	Zoo	12	1	1	[0, 0, 0]	n/a	0	1	0	n/a	n/a	0.0	0	0	0	catFR2	2	R1036M
272.665	24.143	155551	REC_WORD	5.871	n/a	DUCK	n/a	-999	0	1	[0, 0, 0]	n/a	0	1	0	n/a	n/a	0.0	0	0	0	catFR2	2	R1036M
296.808	75.74	167622	REC_END	n/a	n/a	n/a	n/a	-999	0	1	[0, 0, 0]	n/a	0	1	0	n/a	n/a	0.0	0	0	0	catFR2	2	R1036M
372.548	10.0	205489	COUNTDOWN_START	n/a	n/a	n/a	n/a	-999	0	2	[0, 0, 0]	n/a	0	1	0	n/a	n/a	0.0	0	0	0	catFR2	2	R1036M
372.548	10.428	205489	TRIAL	n/a	n/a	n/a	n/a	-999	0	2	[0, 0, 0]	n/a	0	1	0	n/a	n/a	0.0	0	0	0	catFR2	2	R1036M
382.976	0.007	210703	COUNTDOWN_END	n/a	n/a	n/a	n/a	-999	0	2	[0, 0, 0]	n/a	0	1	0	n/a	n/a	0.0	0	0	0	catFR2	2	R1036M
382.983	1.6	210706	ORIENT	n/a	n/a	n/a	n/a	-999	0	2	[0, 0, 0]	n/a	0	1	0	n/a	n/a	0.0	0	0	0	catFR2	2	R1036M
386.397	4.6	212413	STIM_ON	n/a	n/a	n/a	n/a	-999	0	2	[0, 0, 0]	n/a	1	1	4600	LATD1	LATD2	500.0	50	230	300	catFR2	2	R1036M
386.6	1.6	212515	WORD	n/a	wordpools/wordpool_categorized_EN.txt	PAPER	OfficeSupplies	1	1	2	[0, 0, 0]	n/a	1	1	4600	LATD1	LATD2	500.0	50	230	300	catFR2	2	R1036M
389.051	1.6	213740	WORD	n/a	wordpools/wordpool_categorized_EN.txt	GLUE	OfficeSupplies	2	1	2	[0, 0, 0]	n/a	1	1	4600	LATD1	LATD2	500.0	50	230	300	catFR2	2	R1036M
391.635	1.6	215032	WORD	n/a	wordpools/wordpool_categorized_EN.txt	PANTS	Clothing	3	1	2	[0, 0, 0]	n/a	0	1	0	n/a	n/a	0.0	0	0	0	catFR2	2	R1036M
394.118	1.6	216273	WORD	n/a	wordpools/wordpool_categorized_EN.txt	SOCKS	Clothing	4	1	2	[0, 0, 0]	n/a	0	1	0	n/a	n/a	0.0	0	0	0	catFR2	2	R1036M
396.35	4.6	217389	STIM_ON	n/a	n/a	n/a	n/a	-999	0	2	[0, 0, 0]	n/a	1	1	4600	LATD1	LATD2	500.0	50	230	300	catFR2	2	R1036M
396.552	1.6	217490	WORD	n/a	wordpools/wordpool_categorized_EN.txt	BALL	Toys	5	0	2	[0, 0, 0]	n/a	1	1	4600	LATD1	LATD2	500.0	50	230	300	catFR2	2	R1036M
399.103	1.6	218766	WORD	n/a	wordpools/wordpool_categorized_EN.txt	DOLLHOUSE	Toys	6	0	2	[0, 0, 0]	n/a	1	1	4600	LATD1	LATD2	500.0	50	230	300	catFR2	2	R1036M
401.62	1.6	220024	WORD	n/a	wordpools/wordpool_categorized_EN.txt	UNDERWEAR	Clothing	7	1	2	[0, 0, 0]	n/a	0	1	0	n/a	n/a	0.0	0	0	0	catFR2	2	R1036M
404.154	1.6	221291	WORD	n/a	wordpools/wordpool_categorized_EN.txt	SHORTS	Clothing	8	1	2	[0, 0, 0]	n/a	0	1	0	n/a	n/a	0.0	0	0	0	catFR2	2	R1036M
406.457	4.6	222442	STIM_ON	n/a	n/a	n/a	n/a	-999	0	2	[0, 0, 0]	n/a	1	1	4600	LATD1	LATD2	500.0	50	230	300	catFR2	2	R1036M
406.671	1.6	222549	WORD	n/a	wordpools/wordpool_categorized_EN.txt	ERASER	OfficeSupplies	9	0	2	[0, 0, 0]	n/a	1	1	4600	LATD1	LATD2	500.0	50	230	300	catFR2	2	R1036M
409.205	1.6	223816	WORD	n/a	wordpools/wordpool_categorized_EN.txt	PEN	OfficeSupplies	10	0	2	[0, 0, 0]	n/a	1	1	4600	LATD1	LATD2	500.0	50	230	300	catFR2	2	R1036M
411.739	1.6	225083	WORD	n/a	wordpools/wordpool_categorized_EN.txt	FRISBEE	Toys	11	1	2	[0, 0, 0]	n/a	0	1	0	n/a	n/a	0.0	0	0	0	catFR2	2	R1036M
414.172	1.6	226300	WORD	n/a	wordpools/wordpool_categorized_EN.txt	BASEBALL	Toys	12	0	2	[0, 0, 0]	n/a	0	1	0	n/a	n/a	0.0	0	0	0	catFR2	2	R1036M
415.789	0.001	227108	DISTRACT_START	n/a	n/a	n/a	n/a	-999	0	2	[0, 0, 0]	n/a	0	1	0	n/a	n/a	0.0	0	0	0	catFR2	2	R1036M
415.79	0.016	227109	START	n/a	n/a	n/a	n/a	-999	0	2	[-999, -999, -999]	n/a	0	1	0	n/a	n/a	0.0	0	0	0	catFR2	2	R1036M
415.806	6.485	227117	PROB	6.464	n/a	n/a	n/a	-999	0	2	[4, 8, 8]	32	0	1	0	n/a	n/a	0.0	0	0	0	catFR2	2	R1036M
422.291	10.285	230359	PROB	10.251	n/a	n/a	n/a	-999	0	2	[9, 7, 5]	36	0	1	0	n/a	n/a	0.0	0	0	0	catFR2	2	R1036M
432.576	7.03	235501	PROB	7.03	n/a	n/a	n/a	-999	0	2	[7, 3, 3]	13	0	1	0	n/a	n/a	0.0	0	0	0	catFR2	2	R1036M
439.606	0.005	239016	STOP	n/a	n/a	n/a	n/a	-999	0	2	[-999, -999, -999]	n/a	0	1	0	n/a	n/a	0.0	0	0	0	catFR2	2	R1036M
439.611	1.134	239018	DISTRACT_END	n/a	n/a	n/a	n/a	-999	0	2	[0, 0, 0]	n/a	0	1	0	n/a	n/a	0.0	0	0	0	catFR2	2	R1036M
440.745	0.921	239585	REC_START	n/a	n/a	n/a	n/a	-999	0	2	[0, 0, 0]	n/a	0	1	0	n/a	n/a	0.0	0	0	0	catFR2	2	R1036M
441.666	1.984	240046	REC_WORD	0.921	n/a	PAPER	OfficeSupplies	1	1	2	[0, 0, 0]	n/a	0	1	0	n/a	n/a	0.0	0	0	0	catFR2	2	R1036M
443.65	1.732	241038	REC_WORD	2.905	n/a	GLUE	OfficeSupplies	2	1	2	[0, 0, 0]	n/a	0	1	0	n/a	n/a	0.0	0	0	0	catFR2	2	R1036M
445.382	2.462	241904	REC_WORD	4.637	n/a	PANTS	Clothing	3	1	2	[0, 0, 0]	n/a	0	1	0	n/a	n/a	0.0	0	0	0	catFR2	2	R1036M
447.844	2.02	243135	REC_WORD	7.099	n/a	SHORTS	Clothing	8	1	2	[0, 0, 0]	n/a	0	1	0	n/a	n/a	0.0	0	0	0	catFR2	2	R1036M
449.864	1.86	244145	REC_WORD	9.119	n/a	UNDERWEAR	Clothing	7	1	2	[0, 0, 0]	n/a	0	1	0	n/a	n/a	0.0	0	0	0	catFR2	2	R1036M
451.724	2.443	245074	REC_WORD	10.979	n/a	SOCKS	Clothing	4	1	2	[0, 0, 0]	n/a	0	1	0	n/a	n/a	0.0	0	0	0	catFR2	2	R1036M
454.167	16.588	246296	REC_WORD	13.422	n/a	FRISBEE	Toys	11	1	2	[0, 0, 0]	n/a	0	1	0	n/a	n/a	0.0	0	0	0	catFR2	2	R1036M
470.755	14.814	254589	REC_END	n/a	n/a	n/a	n/a	-999	0	2	[0, 0, 0]	n/a	0	1	0	n/a	n/a	0.0	0	0	0	catFR2	2	R1036M
485.569	10.0	261996	COUNTDOWN_START	n/a	n/a	n/a	n/a	-999	0	3	[0, 0, 0]	n/a	0	1	0	n/a	n/a	0.0	0	0	0	catFR2	2	R1036M
485.57	10.427	261996	TRIAL	n/a	n/a	n/a	n/a	-999	0	3	[0, 0, 0]	n/a	0	1	0	n/a	n/a	0.0	0	0	0	catFR2	2	R1036M
495.997	0.008	267209	COUNTDOWN_END	n/a	n/a	n/a	n/a	-999	0	3	[0, 0, 0]	n/a	0	1	0	n/a	n/a	0.0	0	0	0	catFR2	2	R1036M
496.005	1.6	267213	ORIENT	n/a	n/a	n/a	n/a	-999	0	3	[0, 0, 0]	n/a	0	1	0	n/a	n/a	0.0	0	0	0	catFR2	2	R1036M
499.439	4.6	268930	STIM_ON	n/a	n/a	n/a	n/a	-999	0	3	[0, 0, 0]	n/a	1	1	4600	LATD1	LATD2	500.0	50	230	300	catFR2	2	R1036M
499.656	1.6	269039	WORD	n/a	wordpools/wordpool_categorized_EN.txt	STRAWBERRY	Fruit	1	1	3	[0, 0, 0]	n/a	1	1	4600	LATD1	LATD2	500.0	50	230	300	catFR2	2	R1036M
502.139	1.6	270280	WORD	n/a	wordpools/wordpool_categorized_EN.txt	PLUM	Fruit	2	1	3	[0, 0, 0]	n/a	1	1	4600	LATD1	LATD2	500.0	50	230	300	catFR2	2	R1036M
504.69	1.6	271556	WORD	n/a	wordpools/wordpool_categorized_EN.txt	HEAD	BodyParts	3	1	3	[0, 0, 0]	n/a	0	1	0	n/a	n/a	0.0	0	0	0	catFR2	2	R1036M
507.24	1.6	272831	WORD	n/a	wordpools/wordpool_categorized_EN.txt	FOOT	BodyParts	4	0	3	[0, 0, 0]	n/a	0	1	0	n/a	n/a	0.0	0	0	0	catFR2	2	R1036M
509.652	4.6	274037	STIM_ON	n/a	n/a	n/a	n/a	-999	0	3	[0, 0, 0]	n/a	1	1	4600	LATD1	LATD2	500.0	50	230	300	catFR2	2	R1036M
509.858	1.6	274140	WORD	n/a	wordpools/wordpool_categorized_EN.txt	STAIRS	Building	5	0	3	[0, 0, 0]	n/a	1	1	4600	LATD1	LATD2	500.0	50	230	300	catFR2	2	R1036M
512.408	1.6	275414	WORD	n/a	wordpools/wordpool_categorized_EN.txt	BATHROOM	Building	6	0	3	[0, 0, 0]	n/a	1	1	4600	LATD1	LATD2	500.0	50	230	300	catFR2	2	R1036M
514.992	1.6	276706	WORD	n/a	wordpools/wordpool_categorized_EN.txt	BLUEBERRY	Fruit	7	0	3	[0, 0, 0]	n/a	0	1	0	n/a	n/a	0.0	0	0	0	catFR2	2	R1036M
517.474	1.6	277947	WORD	n/a	wordpools/wordpool_categorized_EN.txt	LEMON	Fruit	8	0	3	[0, 0, 0]	n/a	0	1	0	n/a	n/a	0.0	0	0	0	catFR2	2	R1036M
519.791	4.6	279106	STIM_ON	n/a	n/a	n/a	n/a	-999	0	3	[0, 0, 0]	n/a	1	1	4600	LATD1	LATD2	500.0	50	230	300	catFR2	2	R1036M
519.993	1.6	279207	WORD	n/a	wordpools/wordpool_categorized_EN.txt	WALL	Building	9	0	3	[0, 0, 0]	n/a	1	1	4600	LATD1	LATD2	500.0	50	230	300	catFR2	2	R1036M
522.56	1.6	280490	WORD	n/a	wordpools/wordpool_categorized_EN.txt	FLOOR	Building	10	0	3	[0, 0, 0]	n/a	1	1	4600	LATD1	LATD2	500.0	50	230	300	catFR2	2	R1036M
524.944	1.6	281682	WORD	n/a	wordpools/wordpool_categorized_EN.txt	ARM	BodyParts	11	0	3	[0, 0, 0]	n/a	0	1	0	n/a	n/a	0.0	0	0	0	catFR2	2	R1036M
527.427	1.6	282923	WORD	n/a	wordpools/wordpool_categorized_EN.txt	TOE	BodyParts	12	1	3	[0, 0, 0]	n/a	0	1	0	n/a	n/a	0.0	0	0	0	catFR2	2	R1036M
529.045	0.0	283732	DISTRACT_START	n/a	n/a	n/a	n/a	-999	0	3	[0, 0, 0]	n/a	0	1	0	n/a	n/a	0.0	0	0	0	catFR2	2	R1036M
529.045	0.016	283732	START	n/a	n/a	n/a	n/a	-999	0	3	[-999, -999, -999]	n/a	0	1	0	n/a	n/a	0.0	0	0	0	catFR2	2	R1036M
529.061	7.185	283740	PROB	7.161	n/a	n/a	n/a	-999	0	3	[3, 1, 8]	12	0	1	0	n/a	n/a	0.0	0	0	0	catFR2	2	R1036M
536.246	5.351	287333	PROB	5.328	n/a	n/a	n/a	-999	0	3	[9, 1, 6]	16	0	1	0	n/a	n/a	0.0	0	0	0	catFR2	2	R1036M
541.597	6.901	290008	PROB	6.872	n/a	n/a	n/a	-999	0	3	[7, 4, 1]	12	0	1	0	n/a	n/a	0.0	0	0	0	catFR2	2	R1036M
548.498	5.931	293458	PROB	5.931	n/a	n/a	n/a	-999	0	3	[9, 4, 5]	27	0	1	0	n/a	n/a	0.0	0	0	0	catFR2	2	R1036M
554.429	0.019	296424	STOP	n/a	n/a	n/a	n/a	-999	0	3	[-999, -999, -999]	n/a	0	1	0	n/a	n/a	0.0	0	0	0	catFR2	2	R1036M
554.448	1.202	296433	DISTRACT_END	n/a	n/a	n/a	n/a	-999	0	3	[0, 0, 0]	n/a	0	1	0	n/a	n/a	0.0	0	0	0	catFR2	2	R1036M
555.65	0.509	297034	REC_START	n/a	n/a	n/a	n/a	-999	0	3	[0, 0, 0]	n/a	0	1	0	n/a	n/a	0.0	0	0	0	catFR2	2	R1036M
556.159	1.627	297288	REC_WORD	0.509	n/a	STRAWBERRY	Fruit	1	1	3	[0, 0, 0]	n/a	0	1	0	n/a	n/a	0.0	0	0	0	catFR2	2	R1036M
557.786	1.439	298102	REC_WORD	2.136	n/a	PLUM	Fruit	2	1	3	[0, 0, 0]	n/a	0	1	0	n/a	n/a	0.0	0	0	0	catFR2	2	R1036M
559.225	1.629	298821	REC_WORD	3.575	n/a	HEAD	BodyParts	3	1	3	[0, 0, 0]	n/a	0	1	0	n/a	n/a	0.0	0	0	0	catFR2	2	R1036M
560.854	1.591	299636	REC_WORD	5.204	n/a	TOE	BodyParts	12	1	3	[0, 0, 0]	n/a	0	1	0	n/a	n/a	0.0	0	0	0	catFR2	2	R1036M
562.445	10.033	300431	REC_WORD	6.795	n/a	ELBOW	n/a	-999	0	3	[0, 0, 0]	n/a	0	1	0	n/a	n/a	0.0	0	0	0	catFR2	2	R1036M
572.478	7.207	305447	REC_WORD	16.828	n/a	KNEE	n/a	-999	0	3	[0, 0, 0]	n/a	0	1	0	n/a	n/a	0.0	0	0	0	catFR2	2	R1036M
579.685	5.979	309051	REC_WORD	24.035	n/a	PIE	n/a	-999	0	3	[0, 0, 0]	n/a	0	1	0	n/a	n/a	0.0	0	0	0	catFR2	2	R1036M
585.664	8.776	312040	REC_END	n/a	n/a	n/a	n/a	-999	0	3	[0, 0, 0]	n/a	0	1	0	n/a	n/a	0.0	0	0	0	catFR2	2	R1036M
594.44	0.0	316428	TRIAL	n/a	n/a	n/a	n/a	-999	0	4	[0, 0, 0]	n/a	0	1	0	n/a	n/a	0.0	0	0	0	catFR2	2	R1036M
594.44	10.0	316428	COUNTDOWN_START	n/a	n/a	n/a	n/a	-999	0	4	[0, 0, 0]	n/a	0	1	0	n/a	n/a	0.0	0	0	0	catFR2	2	R1036M
604.868	0.008	321641	COUNTDOWN_END	n/a	n/a	n/a	n/a	-999	0	4	[0, 0, 0]	n/a	0	1	0	n/a	n/a	0.0	0	0	0	catFR2	2	R1036M
604.876	1.6	321645	ORIENT	n/a	n/a	n/a	n/a	-999	0	4	[0, 0, 0]	n/a	0	1	0	n/a	n/a	0.0	0	0	0	catFR2	2	R1036M
608.442	1.6	323428	WORD	n/a	wordpools/wordpool_categorized_EN.txt	SHRIMP	OceanAnimals	1	0	4	[0, 0, 0]	n/a	0	1	0	n/a	n/a	0.0	0	0	0	catFR2	2	R1036M
610.96	1.6	324687	WORD	n/a	wordpools/wordpool_categorized_EN.txt	OCTOPUS	OceanAnimals	2	0	4	[0, 0, 0]	n/a	0	1	0	n/a	n/a	0.0	0	0	0	catFR2	2	R1036M
613.26	4.6	325837	STIM_ON	n/a	n/a	n/a	n/a	-999	0	4	[0, 0, 0]	n/a	1	1	4600	LATD1	LATD2	500.0	50	230	300	catFR2	2	R1036M
613.477	1.6	325946	WORD	n/a	wordpools/wordpool_categorized_EN.txt	SKIRT	Clothing	3	0	4	[0, 0, 0]	n/a	1	1	4600	LATD1	LATD2	500.0	50	230	300	catFR2	2	R1036M
615.861	1.6	327137	WORD	n/a	wordpools/wordpool_categorized_EN.txt	DRESS	Clothing	4	1	4	[0, 0, 0]	n/a	1	1	4600	LATD1	LATD2	500.0	50	230	300	catFR2	2	R1036M
618.262	1.6	328338	WORD	n/a	wordpools/wordpool_categorized_EN.txt	IRON	Appliances	5	1	4	[0, 0, 0]	n/a	0	1	0	n/a	n/a	0.0	0	0	0	catFR2	2	R1036M
620.779	1.6	329596	WORD	n/a	wordpools/wordpool_categorized_EN.txt	STOVE	Appliances	6	0	4	[0, 0, 0]	n/a	0	1	0	n/a	n/a	0.0	0	0	0	catFR2	2	R1036M
623.087	4.6	330750	STIM_ON	n/a	n/a	n/a	n/a	-999	0	4	[0, 0, 0]	n/a	1	1	4600	LATD1	LATD2	500.0	50	230	300	catFR2	2	R1036M
623.296	1.6	330855	WORD	n/a	wordpools/wordpool_categorized_EN.txt	TURTLE	OceanAnimals	7	0	4	[0, 0, 0]	n/a	1	1	4600	LATD1	LATD2	500.0	50	230	300	catFR2	2	R1036M
625.83	1.6	332122	WORD	n/a	wordpools/wordpool_categorized_EN.txt	JELLYFISH	OceanAnimals	8	0	4	[0, 0, 0]	n/a	1	1	4600	LATD1	LATD2	500.0	50	230	300	catFR2	2	R1036M
628.429	1.6	333421	WORD	n/a	wordpools/wordpool_categorized_EN.txt	MIXER	Appliances	9	0	4	[0, 0, 0]	n/a	0	1	0	n/a	n/a	0.0	0	0	0	catFR2	2	R1036M
631.014	1.6	334713	WORD	n/a	wordpools/wordpool_categorized_EN.txt	TOASTER	Appliances	10	0	4	[0, 0, 0]	n/a	0	1	0	n/a	n/a	0.0	0	0	0	catFR2	2	R1036M
633.405	4.6	335909	STIM_ON	n/a	n/a	n/a	n/a	-999	0	4	[0, 0, 0]	n/a	1	1	4600	LATD1	LATD2	500.0	50	230	300	catFR2	2	R1036M
633.615	1.6	336014	WORD	n/a	wordpools/wordpool_categorized_EN.txt	SHIRT	Clothing	11	1	4	[0, 0, 0]	n/a	1	1	4600	LATD1	LATD2	500.0	50	230	300	catFR2	2	R1036M
636.099	1.6	337256	WORD	n/a	wordpools/wordpool_categorized_EN.txt	BLOUSE	Clothing	12	1	4	[0, 0, 0]	n/a	1	1	4600	LATD1	LATD2	500.0	50	230	300	catFR2	2	R1036M
637.716	0.0	338064	DISTRACT_START	n/a	n/a	n/a	n/a	-999	0	4	[0, 0, 0]	n/a	0	1	0	n/a	n/a	0.0	0	0	0	catFR2	2	R1036M
637.716	0.016	338064	START	n/a	n/a	n/a	n/a	-999	0	4	[-999, -999, -999]	n/a	0	1	0	n/a	n/a	0.0	0	0	0	catFR2	2	R1036M
637.732	5.968	338072	PROB	5.938	n/a	n/a	n/a	-999	0	4	[2, 5, 4]	11	0	1	0	n/a	n/a	0.0	0	0	0	catFR2	2	R1036M
643.7	4.618	341056	PROB	4.594	n/a	n/a	n/a	-999	0	4	[1, 6, 3]	10	0	1	0	n/a	n/a	0.0	0	0	0	catFR2	2	R1036M
648.318	4.184	343365	PROB	4.158	n/a	n/a	n/a	-999	0	4	[6, 2, 2]	10	0	1	0	n/a	n/a	0.0	0	0	0	catFR2	2	R1036M
652.502	5.034	345457	PROB	5.008	n/a	n/a	n/a	-999	0	4	[7, 8, 3]	25	0	1	0	n/a	n/a	0.0	0	0	0	catFR2	2	R1036M
657.536	7.214	347974	PROB	7.214	n/a	n/a	n/a	-999	0	4	[5, 4, 9]	18	0	1	0	n/a	n/a	0.0	0	0	0	catFR2	2	R1036M
664.75	0.004	351580	STOP	n/a	n/a	n/a	n/a	-999	0	4	[-999, -999, -999]	n/a	0	1	0	n/a	n/a	0.0	0	0	0	catFR2	2	R1036M
664.754	1.101	351582	DISTRACT_END	n/a	n/a	n/a	n/a	-999	0	4	[0, 0, 0]	n/a	0	1	0	n/a	n/a	0.0	0	0	0	catFR2	2	R1036M
665.855	2.513	352133	REC_START	n/a	n/a	n/a	n/a	-999	0	4	[0, 0, 0]	n/a	0	1	0	n/a	n/a	0.0	0	0	0	catFR2	2	R1036M
668.368	1.782	353389	REC_WORD	2.513	n/a	DRESS	Clothing	4	1	4	[0, 0, 0]	n/a	0	1	0	n/a	n/a	0.0	0	0	0	catFR2	2	R1036M
670.15	1.968	354280	REC_WORD	4.295	n/a	SHIRT	Clothing	11	1	4	[0, 0, 0]	n/a	0	1	0	n/a	n/a	0.0	0	0	0	catFR2	2	R1036M
672.118	1.916	355264	REC_WORD	6.263	n/a	BLOUSE	Clothing	12	1	4	[0, 0, 0]	n/a	0	1	0	n/a	n/a	0.0	0	0	0	catFR2	2	R1036M
674.034	6.506	356222	REC_WORD	8.179	n/a	IRON	Appliances	5	1	4	[0, 0, 0]	n/a	0	1	0	n/a	n/a	0.0	0	0	0	catFR2	2	R1036M
680.54	15.325	359475	REC_WORD	14.685	n/a	DRESSER	n/a	-999	0	4	[0, 0, 0]	n/a	0	1	0	n/a	n/a	0.0	0	0	0	catFR2	2	R1036M
695.865	13.265	367137	REC_END	n/a	n/a	n/a	n/a	-999	0	4	[0, 0, 0]	n/a	0	1	0	n/a	n/a	0.0	0	0	0	catFR2	2	R1036M
709.13	0.0	373769	TRIAL	n/a	n/a	n/a	n/a	-999	0	5	[0, 0, 0]	n/a	0	1	0	n/a	n/a	0.0	0	0	0	catFR2	2	R1036M
709.13	10.0	373769	COUNTDOWN_START	n/a	n/a	n/a	n/a	-999	0	5	[0, 0, 0]	n/a	0	1	0	n/a	n/a	0.0	0	0	0	catFR2	2	R1036M
719.558	0.007	378982	COUNTDOWN_END	n/a	n/a	n/a	n/a	-999	0	5	[0, 0, 0]	n/a	0	1	0	n/a	n/a	0.0	0	0	0	catFR2	2	R1036M
719.565	1.6	378986	ORIENT	n/a	n/a	n/a	n/a	-999	0	5	[0, 0, 0]	n/a	0	1	0	n/a	n/a	0.0	0	0	0	catFR2	2	R1036M
723.332	1.6	380869	WORD	n/a	wordpools/wordpool_categorized_EN.txt	FLY	Insects	1	0	5	[0, 0, 0]	n/a	0	1	0	n/a	n/a	0.0	0	0	0	catFR2	2	R1036M
725.916	1.6	382161	WORD	n/a	wordpools/wordpool_categorized_EN.txt	ANT	Insects	2	0	5	[0, 0, 0]	n/a	0	1	0	n/a	n/a	0.0	0	0	0	catFR2	2	R1036M
728.238	4.6	383322	STIM_ON	n/a	n/a	n/a	n/a	-999	0	5	[0, 0, 0]	n/a	1	1	4600	LATD1	LATD2	500.0	50	230	300	catFR2	2	R1036M
728.449	1.6	383428	WORD	n/a	wordpools/wordpool_categorized_EN.txt	PUDDING	Desserts	3	0	5	[0, 0, 0]	n/a	1	1	4600	LATD1	LATD2	500.0	50	230	300	catFR2	2	R1036M
730.934	1.6	384670	WORD	n/a	wordpools/wordpool_categorized_EN.txt	FUDGE	Desserts	4	0	5	[0, 0, 0]	n/a	1	1	4600	LATD1	LATD2	500.0	50	230	300	catFR2	2	R1036M
733.351	1.6	385878	WORD	n/a	wordpools/wordpool_categorized_EN.txt	PLIERS	Tools	5	0	5	[0, 0, 0]	n/a	0	1	0	n/a	n/a	0.0	0	0	0	catFR2	2	R1036M
735.735	1.6	387070	WORD	n/a	wordpools/wordpool_categorized_EN.txt	DRILL	Tools	6	1	5	[0, 0, 0]	n/a	0	1	0	n/a	n/a	0.0	0	0	0	catFR2	2	R1036M
737.932	4.6	388169	STIM_ON	n/a	n/a	n/a	n/a	-999	0	5	[0, 0, 0]	n/a	1	1	4600	LATD1	LATD2	500.0	50	230	300	catFR2	2	R1036M
738.135	1.6	388270	WORD	n/a	wordpools/wordpool_categorized_EN.txt	COBBLER	Desserts	7	0	5	[0, 0, 0]	n/a	1	1	4600	LATD1	LATD2	500.0	50	230	300	catFR2	2	R1036M
740.535	1.6	389470	WORD	n/a	wordpools/wordpool_categorized_EN.txt	PASTRY	Desserts	8	0	5	[0, 0, 0]	n/a	1	1	4600	LATD1	LATD2	500.0	50	230	300	catFR2	2	R1036M
743.053	1.6	390729	WORD	n/a	wordpools/wordpool_categorized_EN.txt	LADYBUG	Insects	9	0	5	[0, 0, 0]	n/a	0	1	0	n/a	n/a	0.0	0	0	0	catFR2	2	R1036M
745.62	1.6	392013	WORD	n/a	wordpools/wordpool_categorized_EN.txt	BUTTERFLY	Insects	10	1	5	[0, 0, 0]	n/a	0	1	0	n/a	n/a	0.0	0	0	0	catFR2	2	R1036M
747.981	4.6	393193	STIM_ON	n/a	n/a	n/a	n/a	-999	0	5	[0, 0, 0]	n/a	1	1	4600	LATD1	LATD2	500.0	50	230	300	catFR2	2	R1036M
748.187	1.6	393296	WORD	n/a	wordpools/wordpool_categorized_EN.txt	SHOVEL	Tools	11	1	5	[0, 0, 0]	n/a	1	1	4600	LATD1	LATD2	500.0	50	230	300	catFR2	2	R1036M
750.771	1.6	394588	WORD	n/a	wordpools/wordpool_categorized_EN.txt	HAMMER	Tools	12	1	5	[0, 0, 0]	n/a	1	1	4600	LATD1	LATD2	500.0	50	230	300	catFR2	2	R1036M
752.388	0.001	395396	DISTRACT_START	n/a	n/a	n/a	n/a	-999	0	5	[0, 0, 0]	n/a	0	1	0	n/a	n/a	0.0	0	0	0	catFR2	2	R1036M
752.389	0.016	395397	START	n/a	n/a	n/a	n/a	-999	0	5	[-999, -999, -999]	n/a	0	1	0	n/a	n/a	0.0	0	0	0	catFR2	2	R1036M
752.405	7.101	395405	PROB	7.064	n/a	n/a	n/a	-999	0	5	[7, 4, 5]	16	0	1	0	n/a	n/a	0.0	0	0	0	catFR2	2	R1036M
759.506	6.418	398955	PROB	6.387	n/a	n/a	n/a	-999	0	5	[2, 4, 9]	15	0	1	0	n/a	n/a	0.0	0	0	0	catFR2	2	R1036M
765.924	5.451	402164	PROB	5.418	n/a	n/a	n/a	-999	0	5	[2, 2, 6]	10	0	1	0	n/a	n/a	0.0	0	0	0	catFR2	2	R1036M
771.375	3.615	404889	PROB	3.615	n/a	n/a	n/a	-999	0	5	[3, 8, 5]	23	0	1	0	n/a	n/a	0.0	0	0	0	catFR2	2	R1036M
774.99	0.019	406697	STOP	n/a	n/a	n/a	n/a	-999	0	5	[-999, -999, -999]	n/a	0	1	0	n/a	n/a	0.0	0	0	0	catFR2	2	R1036M
775.009	1.184	406706	DISTRACT_END	n/a	n/a	n/a	n/a	-999	0	5	[0, 0, 0]	n/a	0	1	0	n/a	n/a	0.0	0	0	0	catFR2	2	R1036M
776.193	0.781	407298	REC_START	n/a	n/a	n/a	n/a	-999	0	5	[0, 0, 0]	n/a	0	1	0	n/a	n/a	0.0	0	0	0	catFR2	2	R1036M
776.974	1.936	407689	REC_WORD	0.781	n/a	SHOVEL	Tools	11	1	5	[0, 0, 0]	n/a	0	1	0	n/a	n/a	0.0	0	0	0	catFR2	2	R1036M
778.91	2.696	408656	REC_WORD	2.717	n/a	DRILL	Tools	6	1	5	[0, 0, 0]	n/a	0	1	0	n/a	n/a	0.0	0	0	0	catFR2	2	R1036M
781.606	5.268	410004	REC_WORD	5.413	n/a	BUTTERFLY	Insects	10	1	5	[0, 0, 0]	n/a	0	1	0	n/a	n/a	0.0	0	0	0	catFR2	2	R1036M
786.874	5.366	412638	REC_WORD	10.681	n/a	IRON	n/a	-999	0	5	[0, 0, 0]	n/a	0	1	0	n/a	n/a	0.0	0	0	0	catFR2	2	R1036M
792.24	2.579	415321	REC_WORD	16.047	n/a	HAMMER	Tools	12	1	5	[0, 0, 0]	n/a	0	1	0	n/a	n/a	0.0	0	0	0	catFR2	2	R1036M
794.819	5.749	416610	REC_WORD	18.626	n/a	WRENCH	n/a	-999	0	5	[0, 0, 0]	n/a	0	1	0	n/a	n/a	0.0	0	0	0	catFR2	2	R1036M
800.568	5.634	419485	REC_WORD	24.375	n/a	SCREWDRIVER	n/a	-999	0	5	[0, 0, 0]	n/a	0	1	0	n/a	n/a	0.0	0	0	0	catFR2	2	R1036M
806.202	21.617	422302	REC_END	n/a	n/a	n/a	n/a	-999	0	5	[0, 0, 0]	n/a	0	1	0	n/a	n/a	0.0	0	0	0	catFR2	2	R1036M
827.819	0.0	433109	TRIAL	n/a	n/a	n/a	n/a	-999	0	6	[0, 0, 0]	n/a	0	0	0	n/a	n/a	0.0	0	0	0	catFR2	2	R1036M
827.819	10.0	433109	COUNTDOWN_START	n/a	n/a	n/a	n/a	-999	0	6	[0, 0, 0]	n/a	0	0	0	n/a	n/a	0.0	0	0	0	catFR2	2	R1036M
838.247	0.008	438323	COUNTDOWN_END	n/a	n/a	n/a	n/a	-999	0	6	[0, 0, 0]	n/a	0	0	0	n/a	n/a	0.0	0	0	0	catFR2	2	R1036M
838.255	1.6	438327	ORIENT	n/a	n/a	n/a	n/a	-999	0	6	[0, 0, 0]	n/a	0	0	0	n/a	n/a	0.0	0	0	0	catFR2	2	R1036M
841.889	1.6	440144	WORD	n/a	wordpools/wordpool_categorized_EN.txt	TAPE	OfficeSupplies	1	1	6	[0, 0, 0]	n/a	0	0	0	n/a	n/a	0.0	0	0	0	catFR2	2	R1036M
844.489	1.6	441444	WORD	n/a	wordpools/wordpool_categorized_EN.txt	BINDER	OfficeSupplies	2	0	6	[0, 0, 0]	n/a	0	0	0	n/a	n/a	0.0	0	0	0	catFR2	2	R1036M
846.99	1.6	442694	WORD	n/a	wordpools/wordpool_categorized_EN.txt	LEVEL	Tools	3	0	6	[0, 0, 0]	n/a	0	0	0	n/a	n/a	0.0	0	0	0	catFR2	2	R1036M
849.472	1.6	443935	WORD	n/a	wordpools/wordpool_categorized_EN.txt	RATCHET	Tools	4	0	6	[0, 0, 0]	n/a	0	0	0	n/a	n/a	0.0	0	0	0	catFR2	2	R1036M
852.057	1.6	445227	WORD	n/a	wordpools/wordpool_categorized_EN.txt	COLA	Beverages	5	0	6	[0, 0, 0]	n/a	0	0	0	n/a	n/a	0.0	0	0	0	catFR2	2	R1036M
854.674	1.6	446536	WORD	n/a	wordpools/wordpool_categorized_EN.txt	MILK	Beverages	6	0	6	[0, 0, 0]	n/a	0	0	0	n/a	n/a	0.0	0	0	0	catFR2	2	R1036M
857.075	1.6	447736	WORD	n/a	wordpools/wordpool_categorized_EN.txt	PENCIL	OfficeSupplies	7	0	6	[0, 0, 0]	n/a	0	0	0	n/a	n/a	0.0	0	0	0	catFR2	2	R1036M
859.559	1.6	448978	WORD	n/a	wordpools/wordpool_categorized_EN.txt	RULER	OfficeSupplies	8	1	6	[0, 0, 0]	n/a	0	0	0	n/a	n/a	0.0	0	0	0	catFR2	2	R1036M
862.009	1.6	450203	WORD	n/a	wordpools/wordpool_categorized_EN.txt	CIDER	Beverages	9	0	6	[0, 0, 0]	n/a	0	0	0	n/a	n/a	0.0	0	0	0	catFR2	2	R1036M
864.493	1.6	451445	WORD	n/a	wordpools/wordpool_categorized_EN.txt	WINE	Beverages	10	0	6	[0, 0, 0]	n/a	0	0	0	n/a	n/a	0.0	0	0	0	catFR2	2	R1036M
866.927	1.6	452662	WORD	n/a	wordpools/wordpool_categorized_EN.txt	SCREWDRIVER	Tools	11	1	6	[0, 0, 0]	n/a	0	0	0	n/a	n/a	0.0	0	0	0	catFR2	2	R1036M
869.31	1.6	453853	WORD	n/a	wordpools/wordpool_categorized_EN.txt	CROWBAR	Tools	12	1	6	[0, 0, 0]	n/a	0	0	0	n/a	n/a	0.0	0	0	0	catFR2	2	R1036M
870.928	0.0	454662	DISTRACT_START	n/a	n/a	n/a	n/a	-999	0	6	[0, 0, 0]	n/a	0	0	0	n/a	n/a	0.0	0	0	0	catFR2	2	R1036M
870.928	0.016	454662	START	n/a	n/a	n/a	n/a	-999	0	6	[-999, -999, -999]	n/a	0	0	0	n/a	n/a	0.0	0	0	0	catFR2	2	R1036M
870.944	8.685	454670	PROB	8.653	n/a	n/a	n/a	-999	0	6	[7, 4, 7]	18	0	0	0	n/a	n/a	0.0	0	0	0	catFR2	2	R1036M
879.629	9.269	459013	PROB	9.248	n/a	n/a	n/a	-999	0	6	[9, 5, 2]	16	0	0	0	n/a	n/a	0.0	0	0	0	catFR2	2	R1036M
888.898	6.156	463647	PROB	6.156	n/a	n/a	n/a	-999	0	6	[8, 8, 4]	20	0	0	0	n/a	n/a	0.0	0	0	0	catFR2	2	R1036M
895.054	0.012	466725	STOP	n/a	n/a	n/a	n/a	-999	0	6	[-999, -999, -999]	n/a	0	0	0	n/a	n/a	0.0	0	0	0	catFR2	2	R1036M
895.066	1.217	466731	DISTRACT_END	n/a	n/a	n/a	n/a	-999	0	6	[0, 0, 0]	n/a	0	0	0	n/a	n/a	0.0	0	0	0	catFR2	2	R1036M
896.283	0.519	467339	REC_START	n/a	n/a	n/a	n/a	-999	0	6	[0, 0, 0]	n/a	0	0	0	n/a	n/a	0.0	0	0	0	catFR2	2	R1036M
896.802	2.898	467598	REC_WORD	0.519	n/a	SCREWDRIVER	Tools	11	1	6	[0, 0, 0]	n/a	0	0	0	n/a	n/a	0.0	0	0	0	catFR2	2	R1036M
899.7	1.679	469047	REC_WORD	3.417	n/a	PEN	n/a	-999	0	6	[0, 0, 0]	n/a	0	0	0	n/a	n/a	0.0	0	0	0	catFR2	2	R1036M
901.379	1.784	469887	REC_WORD	5.096	n/a	NOTEBOOK	n/a	-999	0	6	[0, 0, 0]	n/a	0	0	0	n/a	n/a	0.0	0	0	0	catFR2	2	R1036M
903.163	3.081	470779	REC_WORD	6.88	n/a	TAPE	OfficeSupplies	1	1	6	[0, 0, 0]	n/a	0	0	0	n/a	n/a	0.0	0	0	0	catFR2	2	R1036M
906.244	3.421	472319	REC_WORD	9.961	n/a	RULER	OfficeSupplies	8	1	6	[0, 0, 0]	n/a	0	0	0	n/a	n/a	0.0	0	0	0	catFR2	2	R1036M
909.665	7.614	474030	REC_WORD	13.382	n/a	CROWBAR	Tools	12	1	6	[0, 0, 0]	n/a	0	0	0	n/a	n/a	0.0	0	0	0	catFR2	2	R1036M
917.279	9.021	477836	REC_WORD	20.996	n/a	NOTEBOOK	n/a	-999	0	6	[0, 0, 0]	n/a	0	0	0	n/a	n/a	0.0	0	0	0	catFR2	2	R1036M
926.3	27.677	482346	REC_END	n/a	n/a	n/a	n/a	-999	0	6	[0, 0, 0]	n/a	0	0	0	n/a	n/a	0.0	0	0	0	catFR2	2	R1036M
953.977	10.0	496184	COUNTDOWN_START	n/a	n/a	n/a	n/a	-999	0	7	[0, 0, 0]	n/a	0	1	0	n/a	n/a	0.0	0	0	0	catFR2	2	R1036M
953.977	10.428	496184	TRIAL	n/a	n/a	n/a	n/a	-999	0	7	[0, 0, 0]	n/a	0	1	0	n/a	n/a	0.0	0	0	0	catFR2	2	R1036M
964.405	0.007	501398	COUNTDOWN_END	n/a	n/a	n/a	n/a	-999	0	7	[0, 0, 0]	n/a	0	1	0	n/a	n/a	0.0	0	0	0	catFR2	2	R1036M
964.412	1.6	501401	ORIENT	n/a	n/a	n/a	n/a	-999	0	7	[0, 0, 0]	n/a	0	1	0	n/a	n/a	0.0	0	0	0	catFR2	2	R1036M
968.013	1.6	503202	WORD	n/a	wordpools/wordpool_categorized_EN.txt	SPARROW	Birds	1	1	7	[0, 0, 0]	n/a	0	1	0	n/a	n/a	0.0	0	0	0	catFR2	2	R1036M
970.429	1.6	504409	WORD	n/a	wordpools/wordpool_categorized_EN.txt	HAWK	Birds	2	0	7	[0, 0, 0]	n/a	0	1	0	n/a	n/a	0.0	0	0	0	catFR2	2	R1036M
972.701	4.6	505545	STIM_ON	n/a	n/a	n/a	n/a	-999	0	7	[0, 0, 0]	n/a	1	1	4600	LATD1	LATD2	500.0	50	230	300	catFR2	2	R1036M
972.914	1.6	505652	WORD	n/a	wordpools/wordpool_categorized_EN.txt	EAR	BodyParts	3	0	7	[0, 0, 0]	n/a	1	1	4600	LATD1	LATD2	500.0	50	230	300	catFR2	2	R1036M
975.315	1.6	506852	WORD	n/a	wordpools/wordpool_categorized_EN.txt	NOSE	BodyParts	4	1	7	[0, 0, 0]	n/a	1	1	4600	LATD1	LATD2	500.0	50	230	300	catFR2	2	R1036M
977.915	1.6	508152	WORD	n/a	wordpools/wordpool_categorized_EN.txt	CUPCAKE	Desserts	5	0	7	[0, 0, 0]	n/a	0	1	0	n/a	n/a	0.0	0	0	0	catFR2	2	R1036M
980.431	1.6	509410	WORD	n/a	wordpools/wordpool_categorized_EN.txt	PIE	Desserts	6	0	7	[0, 0, 0]	n/a	0	1	0	n/a	n/a	0.0	0	0	0	catFR2	2	R1036M
982.624	4.6	510507	STIM_ON	n/a	n/a	n/a	n/a	-999	0	7	[0, 0, 0]	n/a	1	1	4600	LATD1	LATD2	500.0	50	230	300	catFR2	2	R1036M
982.833	1.6	510611	WORD	n/a	wordpools/wordpool_categorized_EN.txt	SEAGULL	Birds	7	1	7	[0, 0, 0]	n/a	1	1	4600	LATD1	LATD2	500.0	50	230	300	catFR2	2	R1036M
985.233	1.6	511811	WORD	n/a	wordpools/wordpool_categorized_EN.txt	DOVE	Birds	8	1	7	[0, 0, 0]	n/a	1	1	4600	LATD1	LATD2	500.0	50	230	300	catFR2	2	R1036M
987.717	1.6	513053	WORD	n/a	wordpools/wordpool_categorized_EN.txt	CAKE	Desserts	9	0	7	[0, 0, 0]	n/a	0	1	0	n/a	n/a	0.0	0	0	0	catFR2	2	R1036M
990.117	1.6	514253	WORD	n/a	wordpools/wordpool_categorized_EN.txt	MOUSSE	Desserts	10	0	7	[0, 0, 0]	n/a	0	1	0	n/a	n/a	0.0	0	0	0	catFR2	2	R1036M
992.424	4.6	515406	STIM_ON	n/a	n/a	n/a	n/a	-999	0	7	[0, 0, 0]	n/a	1	1	4600	LATD1	LATD2	500.0	50	230	300	catFR2	2	R1036M
992.634	1.6	515511	WORD	n/a	wordpools/wordpool_categorized_EN.txt	ELBOW	BodyParts	11	1	7	[0, 0, 0]	n/a	1	1	4600	LATD1	LATD2	500.0	50	230	300	catFR2	2	R1036M
995.185	1.6	516787	WORD	n/a	wordpools/wordpool_categorized_EN.txt	EYE	BodyParts	12	0	7	[0, 0, 0]	n/a	1	1	4600	LATD1	LATD2	500.0	50	230	300	catFR2	2	R1036M
996.802	0.001	517595	DISTRACT_START	n/a	n/a	n/a	n/a	-999	0	7	[0, 0, 0]	n/a	0	1	0	n/a	n/a	0.0	0	0	0	catFR2	2	R1036M
996.803	0.016	517596	START	n/a	n/a	n/a	n/a	-999	0	7	[-999, -999, -999]	n/a	0	1	0	n/a	n/a	0.0	0	0	0	catFR2	2	R1036M
996.819	4.684	517604	PROB	4.658	n/a	n/a	n/a	-999	0	7	[6, 7, 7]	20	0	1	0	n/a	n/a	0.0	0	0	0	catFR2	2	R1036M
1001.503	5.634	519945	PROB	5.598	n/a	n/a	n/a	-999	0	7	[3, 6, 1]	10	0	1	0	n/a	n/a	0.0	0	0	0	catFR2	2	R1036M
1007.137	6.218	522762	PROB	6.197	n/a	n/a	n/a	-999	0	7	[3, 7, 2]	12	0	1	0	n/a	n/a	0.0	0	0	0	catFR2	2	R1036M
1013.355	5.299	525871	PROB	5.299	n/a	n/a	n/a	-999	0	7	[2, 4, 8]	14	0	1	0	n/a	n/a	0.0	0	0	0	catFR2	2	R1036M
1018.654	0.019	528520	STOP	n/a	n/a	n/a	n/a	-999	0	7	[-999, -999, -999]	n/a	0	1	0	n/a	n/a	0.0	0	0	0	catFR2	2	R1036M
1018.673	1.134	528530	DISTRACT_END	n/a	n/a	n/a	n/a	-999	0	7	[0, 0, 0]	n/a	0	1	0	n/a	n/a	0.0	0	0	0	catFR2	2	R1036M
1019.807	2.356	529097	REC_START	n/a	n/a	n/a	n/a	-999	0	7	[0, 0, 0]	n/a	0	1	0	n/a	n/a	0.0	0	0	0	catFR2	2	R1036M
1022.163	2.379	530275	REC_WORD	2.356	n/a	ELBOW	BodyParts	11	1	7	[0, 0, 0]	n/a	0	1	0	n/a	n/a	0.0	0	0	0	catFR2	2	R1036M
1024.542	4.277	531464	REC_WORD	4.735	n/a	NOSE	BodyParts	4	1	7	[0, 0, 0]	n/a	0	1	0	n/a	n/a	0.0	0	0	0	catFR2	2	R1036M
1028.819	2.994	533603	REC_WORD	9.012	n/a	SEAGULL	Birds	7	1	7	[0, 0, 0]	n/a	0	1	0	n/a	n/a	0.0	0	0	0	catFR2	2	R1036M
1031.813	4.675	535099	REC_WORD	12.006	n/a	SPARROW	Birds	1	1	7	[0, 0, 0]	n/a	0	1	0	n/a	n/a	0.0	0	0	0	catFR2	2	R1036M
1036.488	3.432	537437	REC_WORD	16.681	n/a	BUTTERFLY	n/a	-999	0	7	[0, 0, 0]	n/a	0	1	0	n/a	n/a	0.0	0	0	0	catFR2	2	R1036M
1039.92	7.784	539153	REC_WORD	20.113	n/a	DOVE	Birds	8	1	7	[0, 0, 0]	n/a	0	1	0	n/a	n/a	0.0	0	0	0	catFR2	2	R1036M
1047.704	2.113	543044	REC_WORD	27.897	n/a	LEG	n/a	-999	0	7	[0, 0, 0]	n/a	0	1	0	n/a	n/a	0.0	0	0	0	catFR2	2	R1036M
1049.817	9.047	544101	REC_END	n/a	n/a	n/a	n/a	-999	0	7	[0, 0, 0]	n/a	0	1	0	n/a	n/a	0.0	0	0	0	catFR2	2	R1036M
1058.864	0.0	548624	TRIAL	n/a	n/a	n/a	n/a	-999	0	8	[0, 0, 0]	n/a	0	0	0	n/a	n/a	0.0	0	0	0	catFR2	2	R1036M
1058.864	10.0	548624	COUNTDOWN_START	n/a	n/a	n/a	n/a	-999	0	8	[0, 0, 0]	n/a	0	0	0	n/a	n/a	0.0	0	0	0	catFR2	2	R1036M
1069.292	0.007	553838	COUNTDOWN_END	n/a	n/a	n/a	n/a	-999	0	8	[0, 0, 0]	n/a	0	0	0	n/a	n/a	0.0	0	0	0	catFR2	2	R1036M
1069.299	1.6	553841	ORIENT	n/a	n/a	n/a	n/a	-999	0	8	[0, 0, 0]	n/a	0	0	0	n/a	n/a	0.0	0	0	0	catFR2	2	R1036M
1072.95	1.6	555667	WORD	n/a	wordpools/wordpool_categorized_EN.txt	PIANO	Instruments	1	1	8	[0, 0, 0]	n/a	0	0	0	n/a	n/a	0.0	0	0	0	catFR2	2	R1036M
1075.351	1.6	556867	WORD	n/a	wordpools/wordpool_categorized_EN.txt	GUITAR	Instruments	2	1	8	[0, 0, 0]	n/a	0	0	0	n/a	n/a	0.0	0	0	0	catFR2	2	R1036M
1077.918	1.6	558150	WORD	n/a	wordpools/wordpool_categorized_EN.txt	BLUEBIRD	Birds	3	0	8	[0, 0, 0]	n/a	0	0	0	n/a	n/a	0.0	0	0	0	catFR2	2	R1036M
1080.385	1.6	559384	WORD	n/a	wordpools/wordpool_categorized_EN.txt	FINCH	Birds	4	0	8	[0, 0, 0]	n/a	0	0	0	n/a	n/a	0.0	0	0	0	catFR2	2	R1036M
1082.985	1.6	560684	WORD	n/a	wordpools/wordpool_categorized_EN.txt	LOBSTER	OceanAnimals	5	0	8	[0, 0, 0]	n/a	0	0	0	n/a	n/a	0.0	0	0	0	catFR2	2	R1036M
1085.369	1.6	561876	WORD	n/a	wordpools/wordpool_categorized_EN.txt	FISH	OceanAnimals	6	1	8	[0, 0, 0]	n/a	0	0	0	n/a	n/a	0.0	0	0	0	catFR2	2	R1036M
1087.87	1.6	563126	WORD	n/a	wordpools/wordpool_categorized_EN.txt	BANJO	Instruments	7	1	8	[0, 0, 0]	n/a	0	0	0	n/a	n/a	0.0	0	0	0	catFR2	2	R1036M
1090.387	1.6	564384	WORD	n/a	wordpools/wordpool_categorized_EN.txt	FLUTE	Instruments	8	1	8	[0, 0, 0]	n/a	0	0	0	n/a	n/a	0.0	0	0	0	catFR2	2	R1036M
1092.904	1.6	565643	WORD	n/a	wordpools/wordpool_categorized_EN.txt	DOLPHIN	OceanAnimals	9	1	8	[0, 0, 0]	n/a	0	0	0	n/a	n/a	0.0	0	0	0	catFR2	2	R1036M
1095.488	1.6	566935	WORD	n/a	wordpools/wordpool_categorized_EN.txt	SQUID	OceanAnimals	10	0	8	[0, 0, 0]	n/a	0	0	0	n/a	n/a	0.0	0	0	0	catFR2	2	R1036M
1097.922	1.6	568152	WORD	n/a	wordpools/wordpool_categorized_EN.txt	CARDINAL	Birds	11	0	8	[0, 0, 0]	n/a	0	0	0	n/a	n/a	0.0	0	0	0	catFR2	2	R1036M
1100.505	1.6	569443	WORD	n/a	wordpools/wordpool_categorized_EN.txt	DUCK	Birds	12	0	8	[0, 0, 0]	n/a	0	0	0	n/a	n/a	0.0	0	0	0	catFR2	2	R1036M
1102.122	0.001	570252	DISTRACT_START	n/a	n/a	n/a	n/a	-999	0	8	[0, 0, 0]	n/a	0	0	0	n/a	n/a	0.0	0	0	0	catFR2	2	R1036M
1102.123	0.016	570252	START	n/a	n/a	n/a	n/a	-999	0	8	[-999, -999, -999]	n/a	0	0	0	n/a	n/a	0.0	0	0	0	catFR2	2	R1036M
1102.139	5.735	570260	PROB	5.699	n/a	n/a	n/a	-999	0	8	[1, 1, 2]	4	0	0	0	n/a	n/a	0.0	0	0	0	catFR2	2	R1036M
1107.874	10.535	573127	PROB	10.5	n/a	n/a	n/a	-999	0	8	[9, 5, 4]	18	0	0	0	n/a	n/a	0.0	0	0	0	catFR2	2	R1036M
1118.409	5.693	578395	PROB	5.693	n/a	n/a	n/a	-999	0	8	[7, 3, 2]	12	0	0	0	n/a	n/a	0.0	0	0	0	catFR2	2	R1036M
1124.102	0.008	581241	STOP	n/a	n/a	n/a	n/a	-999	0	8	[-999, -999, -999]	n/a	0	0	0	n/a	n/a	0.0	0	0	0	catFR2	2	R1036M
1124.11	1.034	581245	DISTRACT_END	n/a	n/a	n/a	n/a	-999	0	8	[0, 0, 0]	n/a	0	0	0	n/a	n/a	0.0	0	0	0	catFR2	2	R1036M
1125.144	0.919	581762	REC_START	n/a	n/a	n/a	n/a	-999	0	8	[0, 0, 0]	n/a	0	0	0	n/a	n/a	0.0	0	0	0	catFR2	2	R1036M
1126.063	1.615	582221	REC_WORD	0.919	n/a	GUITAR	Instruments	2	1	8	[0, 0, 0]	n/a	0	0	0	n/a	n/a	0.0	0	0	0	catFR2	2	R1036M
1127.678	1.937	583029	REC_WORD	2.534	n/a	PIANO	Instruments	1	1	8	[0, 0, 0]	n/a	0	0	0	n/a	n/a	0.0	0	0	0	catFR2	2	R1036M
1129.615	2.38	583997	REC_WORD	4.471	n/a	BANJO	Instruments	7	1	8	[0, 0, 0]	n/a	0	0	0	n/a	n/a	0.0	0	0	0	catFR2	2	R1036M
1131.995	5.451	585187	REC_WORD	6.851	n/a	FLUTE	Instruments	8	1	8	[0, 0, 0]	n/a	0	0	0	n/a	n/a	0.0	0	0	0	catFR2	2	R1036M
1137.446	4.06	587912	REC_WORD	12.302	n/a	DOLPHIN	OceanAnimals	9	1	8	[0, 0, 0]	n/a	0	0	0	n/a	n/a	0.0	0	0	0	catFR2	2	R1036M
1141.506	4.28	589942	REC_WORD	16.362	n/a	SEAGULL	n/a	-999	0	8	[0, 0, 0]	n/a	0	0	0	n/a	n/a	0.0	0	0	0	catFR2	2	R1036M
1145.786	4.594	592082	REC_WORD	20.642	n/a	FISH	OceanAnimals	6	1	8	[0, 0, 0]	n/a	0	0	0	n/a	n/a	0.0	0	0	0	catFR2	2	R1036M
1150.38	4.779	594379	REC_WORD	25.236	n/a	JELLYFISH	n/a	-999	0	8	[0, 0, 0]	n/a	0	0	0	n/a	n/a	0.0	0	0	0	catFR2	2	R1036M
1155.159	15.793	596768	REC_END	n/a	n/a	n/a	n/a	-999	0	8	[0, 0, 0]	n/a	0	0	0	n/a	n/a	0.0	0	0	0	catFR2	2	R1036M
1170.952	10.0	604664	COUNTDOWN_START	n/a	n/a	n/a	n/a	-999	0	9	[0, 0, 0]	n/a	0	1	0	n/a	n/a	0.0	0	0	0	catFR2	2	R1036M
1170.953	10.427	604665	TRIAL	n/a	n/a	n/a	n/a	-999	0	9	[0, 0, 0]	n/a	0	1	0	n/a	n/a	0.0	0	0	0	catFR2	2	R1036M
1181.38	0.008	609878	COUNTDOWN_END	n/a	n/a	n/a	n/a	-999	0	9	[0, 0, 0]	n/a	0	1	0	n/a	n/a	0.0	0	0	0	catFR2	2	R1036M
1181.388	1.6	609882	ORIENT	n/a	n/a	n/a	n/a	-999	0	9	[0, 0, 0]	n/a	0	1	0	n/a	n/a	0.0	0	0	0	catFR2	2	R1036M
1185.139	1.6	611757	WORD	n/a	wordpools/wordpool_categorized_EN.txt	LADLE	KitchenTools	1	0	9	[0, 0, 0]	n/a	0	1	0	n/a	n/a	0.0	0	0	0	catFR2	2	R1036M
1187.572	1.6	612974	WORD	n/a	wordpools/wordpool_categorized_EN.txt	CORKSCREW	KitchenTools	2	0	9	[0, 0, 0]	n/a	0	1	0	n/a	n/a	0.0	0	0	0	catFR2	2	R1036M
1189.918	4.6	614147	STIM_ON	n/a	n/a	n/a	n/a	-999	0	9	[0, 0, 0]	n/a	1	1	4600	LATD1	LATD2	500.0	50	230	300	catFR2	2	R1036M
1190.123	1.6	614249	WORD	n/a	wordpools/wordpool_categorized_EN.txt	FOREST	Landscapes	3	0	9	[0, 0, 0]	n/a	1	1	4600	LATD1	LATD2	500.0	50	230	300	catFR2	2	R1036M
1192.607	1.6	615491	WORD	n/a	wordpools/wordpool_categorized_EN.txt	LAKE	Landscapes	4	0	9	[0, 0, 0]	n/a	1	1	4600	LATD1	LATD2	500.0	50	230	300	catFR2	2	R1036M
1195.074	1.6	616724	WORD	n/a	wordpools/wordpool_categorized_EN.txt	COAT	Clothing	5	1	9	[0, 0, 0]	n/a	0	1	0	n/a	n/a	0.0	0	0	0	catFR2	2	R1036M
1197.473	1.6	617924	WORD	n/a	wordpools/wordpool_categorized_EN.txt	JEANS	Clothing	6	0	9	[0, 0, 0]	n/a	0	1	0	n/a	n/a	0.0	0	0	0	catFR2	2	R1036M
1199.867	4.6	619121	STIM_ON	n/a	n/a	n/a	n/a	-999	0	9	[0, 0, 0]	n/a	1	1	4600	LATD1	LATD2	500.0	50	230	300	catFR2	2	R1036M
1200.075	1.6	619225	WORD	n/a	wordpools/wordpool_categorized_EN.txt	VALLEY	Landscapes	7	0	9	[0, 0, 0]	n/a	1	1	4600	LATD1	LATD2	500.0	50	230	300	catFR2	2	R1036M
1202.474	1.6	620424	WORD	n/a	wordpools/wordpool_categorized_EN.txt	RIVER	Landscapes	8	0	9	[0, 0, 0]	n/a	1	1	4600	LATD1	LATD2	500.0	50	230	300	catFR2	2	R1036M
1205.042	1.6	621708	WORD	n/a	wordpools/wordpool_categorized_EN.txt	PEELER	KitchenTools	9	1	9	[0, 0, 0]	n/a	0	1	0	n/a	n/a	0.0	0	0	0	catFR2	2	R1036M
1207.56	1.6	622967	WORD	n/a	wordpools/wordpool_categorized_EN.txt	TONGS	KitchenTools	10	1	9	[0, 0, 0]	n/a	0	1	0	n/a	n/a	0.0	0	0	0	catFR2	2	R1036M
1209.767	4.6	624070	STIM_ON	n/a	n/a	n/a	n/a	-999	0	9	[0, 0, 0]	n/a	1	1	4600	LATD1	LATD2	500.0	50	230	300	catFR2	2	R1036M
1209.977	1.6	624175	WORD	n/a	wordpools/wordpool_categorized_EN.txt	JACKET	Clothing	11	1	9	[0, 0, 0]	n/a	1	1	4600	LATD1	LATD2	500.0	50	230	300	catFR2	2	R1036M
1212.426	1.6	625400	WORD	n/a	wordpools/wordpool_categorized_EN.txt	SHOES	Clothing	12	1	9	[0, 0, 0]	n/a	1	1	4600	LATD1	LATD2	500.0	50	230	300	catFR2	2	R1036M
1214.027	0.001	626200	DISTRACT_START	n/a	n/a	n/a	n/a	-999	0	9	[0, 0, 0]	n/a	0	1	0	n/a	n/a	0.0	0	0	0	catFR2	2	R1036M
1214.028	0.016	626201	START	n/a	n/a	n/a	n/a	-999	0	9	[-999, -999, -999]	n/a	0	1	0	n/a	n/a	0.0	0	0	0	catFR2	2	R1036M
1214.044	4.433	626209	PROB	4.409	n/a	n/a	n/a	-999	0	9	[7, 6, 1]	14	0	1	0	n/a	n/a	0.0	0	0	0	catFR2	2	R1036M
1218.477	5.469	628425	PROB	5.433	n/a	n/a	n/a	-999	0	9	[1, 7, 6]	19	0	1	0	n/a	n/a	0.0	0	0	0	catFR2	2	R1036M
1223.946	5.685	631159	PROB	5.66	n/a	n/a	n/a	-999	0	9	[3, 3, 2]	8	0	1	0	n/a	n/a	0.0	0	0	0	catFR2	2	R1036M
1229.631	4.943	634002	PROB	4.943	n/a	n/a	n/a	-999	0	9	[1, 3, 8]	12	0	1	0	n/a	n/a	0.0	0	0	0	catFR2	2	R1036M
1234.574	0.008	636473	STOP	n/a	n/a	n/a	n/a	-999	0	9	[-999, -999, -999]	n/a	0	1	0	n/a	n/a	0.0	0	0	0	catFR2	2	R1036M
1234.582	1.134	636477	DISTRACT_END	n/a	n/a	n/a	n/a	-999	0	9	[0, 0, 0]	n/a	0	1	0	n/a	n/a	0.0	0	0	0	catFR2	2	R1036M
1235.716	1.095	637044	REC_START	n/a	n/a	n/a	n/a	-999	0	9	[0, 0, 0]	n/a	0	1	0	n/a	n/a	0.0	0	0	0	catFR2	2	R1036M
1236.811	1.871	637592	REC_WORD	1.095	n/a	JACKET	Clothing	11	1	9	[0, 0, 0]	n/a	0	1	0	n/a	n/a	0.0	0	0	0	catFR2	2	R1036M
1238.682	2.572	638527	REC_WORD	2.966	n/a	SHOES	Clothing	12	1	9	[0, 0, 0]	n/a	0	1	0	n/a	n/a	0.0	0	0	0	catFR2	2	R1036M
1241.254	2.826	639813	REC_WORD	5.538	n/a	COAT	Clothing	5	1	9	[0, 0, 0]	n/a	0	1	0	n/a	n/a	0.0	0	0	0	catFR2	2	R1036M
1244.08	2.583	641226	REC_WORD	8.364	n/a	PEELER	KitchenTools	9	1	9	[0, 0, 0]	n/a	0	1	0	n/a	n/a	0.0	0	0	0	catFR2	2	R1036M
1246.663	2.082	642517	REC_WORD	10.947	n/a	PEELER	KitchenTools	9	1	9	[0, 0, 0]	n/a	0	1	0	n/a	n/a	0.0	0	0	0	catFR2	2	R1036M
1248.745	16.982	643558	REC_WORD	13.029	n/a	TONGS	KitchenTools	10	1	9	[0, 0, 0]	n/a	0	1	0	n/a	n/a	0.0	0	0	0	catFR2	2	R1036M
1265.727	7.845	652049	REC_END	n/a	n/a	n/a	n/a	-999	0	9	[0, 0, 0]	n/a	0	1	0	n/a	n/a	0.0	0	0	0	catFR2	2	R1036M
1273.572	10.0	655971	COUNTDOWN_START	n/a	n/a	n/a	n/a	-999	0	10	[0, 0, 0]	n/a	0	1	0	n/a	n/a	0.0	0	0	0	catFR2	2	R1036M
1273.573	10.427	655971	TRIAL	n/a	n/a	n/a	n/a	-999	0	10	[0, 0, 0]	n/a	0	1	0	n/a	n/a	0.0	0	0	0	catFR2	2	R1036M
1284.0	0.008	661184	COUNTDOWN_END	n/a	n/a	n/a	n/a	-999	0	10	[0, 0, 0]	n/a	0	1	0	n/a	n/a	0.0	0	0	0	catFR2	2	R1036M
1284.008	1.6	661188	ORIENT	n/a	n/a	n/a	n/a	-999	0	10	[0, 0, 0]	n/a	0	1	0	n/a	n/a	0.0	0	0	0	catFR2	2	R1036M
1287.908	1.6	663138	WORD	n/a	wordpools/wordpool_categorized_EN.txt	LILY	Flowers	1	1	10	[0, 0, 0]	n/a	0	1	0	n/a	n/a	0.0	0	0	0	catFR2	2	R1036M
1290.526	1.6	664447	WORD	n/a	wordpools/wordpool_categorized_EN.txt	LILAC	Flowers	2	1	10	[0, 0, 0]	n/a	0	1	0	n/a	n/a	0.0	0	0	0	catFR2	2	R1036M
1292.78	4.6	665574	STIM_ON	n/a	n/a	n/a	n/a	-999	0	10	[0, 0, 0]	n/a	1	1	4600	LATD1	LATD2	500.0	50	230	300	catFR2	2	R1036M
1292.993	1.6	665681	WORD	n/a	wordpools/wordpool_categorized_EN.txt	HEN	FarmAnimals	3	1	10	[0, 0, 0]	n/a	1	1	4600	LATD1	LATD2	500.0	50	230	300	catFR2	2	R1036M
1295.393	1.6	666881	WORD	n/a	wordpools/wordpool_categorized_EN.txt	ROOSTER	FarmAnimals	4	1	10	[0, 0, 0]	n/a	1	1	4600	LATD1	LATD2	500.0	50	230	300	catFR2	2	R1036M
1297.81	1.6	668089	WORD	n/a	wordpools/wordpool_categorized_EN.txt	WOODS	Landscapes	5	0	10	[0, 0, 0]	n/a	0	1	0	n/a	n/a	0.0	0	0	0	catFR2	2	R1036M
1300.278	1.6	669323	WORD	n/a	wordpools/wordpool_categorized_EN.txt	BEACH	Landscapes	6	0	10	[0, 0, 0]	n/a	0	1	0	n/a	n/a	0.0	0	0	0	catFR2	2	R1036M
1302.69	4.6	670529	STIM_ON	n/a	n/a	n/a	n/a	-999	0	10	[0, 0, 0]	n/a	1	1	4600	LATD1	LATD2	500.0	50	230	300	catFR2	2	R1036M
1302.895	1.6	670631	WORD	n/a	wordpools/wordpool_categorized_EN.txt	ORCHID	Flowers	7	0	10	[0, 0, 0]	n/a	1	1	4600	LATD1	LATD2	500.0	50	230	300	catFR2	2	R1036M
1305.512	1.6	671940	WORD	n/a	wordpools/wordpool_categorized_EN.txt	DAISY	Flowers	8	0	10	[0, 0, 0]	n/a	1	1	4600	LATD1	LATD2	500.0	50	230	300	catFR2	2	R1036M
1307.912	1.6	673140	WORD	n/a	wordpools/wordpool_categorized_EN.txt	OCEAN	Landscapes	9	0	10	[0, 0, 0]	n/a	0	1	0	n/a	n/a	0.0	0	0	0	catFR2	2	R1036M
1310.462	1.6	674415	WORD	n/a	wordpools/wordpool_categorized_EN.txt	CREEK	Landscapes	10	0	10	[0, 0, 0]	n/a	0	1	0	n/a	n/a	0.0	0	0	0	catFR2	2	R1036M
1312.65	4.6	675508	STIM_ON	n/a	n/a	n/a	n/a	-999	0	10	[0, 0, 0]	n/a	1	1	4600	LATD1	LATD2	500.0	50	230	300	catFR2	2	R1036M
1312.863	1.6	675615	WORD	n/a	wordpools/wordpool_categorized_EN.txt	TURKEY	FarmAnimals	11	0	10	[0, 0, 0]	n/a	1	1	4600	LATD1	LATD2	500.0	50	230	300	catFR2	2	R1036M
1315.397	1.6	676882	WORD	n/a	wordpools/wordpool_categorized_EN.txt	CALF	FarmAnimals	12	1	10	[0, 0, 0]	n/a	1	1	4600	LATD1	LATD2	500.0	50	230	300	catFR2	2	R1036M
1317.014	0.001	677690	DISTRACT_START	n/a	n/a	n/a	n/a	-999	0	10	[0, 0, 0]	n/a	0	1	0	n/a	n/a	0.0	0	0	0	catFR2	2	R1036M
1317.015	0.016	677691	START	n/a	n/a	n/a	n/a	-999	0	10	[-999, -999, -999]	n/a	0	1	0	n/a	n/a	0.0	0	0	0	catFR2	2	R1036M
1317.031	8.218	677699	PROB	8.191	n/a	n/a	n/a	-999	0	10	[7, 3, 9]	19	0	1	0	n/a	n/a	0.0	0	0	0	catFR2	2	R1036M
1325.249	8.535	681808	PROB	8.509	n/a	n/a	n/a	-999	0	10	[7, 5, 8]	20	0	1	0	n/a	n/a	0.0	0	0	0	catFR2	2	R1036M
1333.784	7.75	686075	PROB	7.75	n/a	n/a	n/a	-999	0	10	[7, 2, 4]	13	0	1	0	n/a	n/a	0.0	0	0	0	catFR2	2	R1036M
1341.534	0.018	689950	STOP	n/a	n/a	n/a	n/a	-999	0	10	[-999, -999, -999]	n/a	0	1	0	n/a	n/a	0.0	0	0	0	catFR2	2	R1036M
1341.552	1.134	689959	DISTRACT_END	n/a	n/a	n/a	n/a	-999	0	10	[0, 0, 0]	n/a	0	1	0	n/a	n/a	0.0	0	0	0	catFR2	2	R1036M
1342.686	5.225	690525	REC_START	n/a	n/a	n/a	n/a	-999	0	10	[0, 0, 0]	n/a	0	1	0	n/a	n/a	0.0	0	0	0	catFR2	2	R1036M
1347.911	2.28	693138	REC_WORD	5.225	n/a	ROOSTER	FarmAnimals	4	1	10	[0, 0, 0]	n/a	0	1	0	n/a	n/a	0.0	0	0	0	catFR2	2	R1036M
1350.191	2.38	694278	REC_WORD	7.505	n/a	HEN	FarmAnimals	3	1	10	[0, 0, 0]	n/a	0	1	0	n/a	n/a	0.0	0	0	0	catFR2	2	R1036M
1352.571	3.2	695468	REC_WORD	9.885	n/a	CALF	FarmAnimals	12	1	10	[0, 0, 0]	n/a	0	1	0	n/a	n/a	0.0	0	0	0	catFR2	2	R1036M
1355.771	2.517	697068	REC_WORD	13.085	n/a	LILAC	Flowers	2	1	10	[0, 0, 0]	n/a	0	1	0	n/a	n/a	0.0	0	0	0	catFR2	2	R1036M
1358.288	9.192	698326	REC_WORD	15.602	n/a	LILY	Flowers	1	1	10	[0, 0, 0]	n/a	0	1	0	n/a	n/a	0.0	0	0	0	catFR2	2	R1036M
1367.48	3.53	702922	REC_WORD	24.794	n/a	RIVER	n/a	-999	0	10	[0, 0, 0]	n/a	0	1	0	n/a	n/a	0.0	0	0	0	catFR2	2	R1036M
1371.01	1.69	704687	REC_WORD	28.324	n/a	STREAM	n/a	-999	0	10	[0, 0, 0]	n/a	0	1	0	n/a	n/a	0.0	0	0	0	catFR2	2	R1036M
1372.7	8.627	705531	REC_END	n/a	n/a	n/a	n/a	-999	0	10	[0, 0, 0]	n/a	0	1	0	n/a	n/a	0.0	0	0	0	catFR2	2	R1036M
1381.327	0.0	709845	TRIAL	n/a	n/a	n/a	n/a	-999	0	11	[0, 0, 0]	n/a	0	1	0	n/a	n/a	0.0	0	0	0	catFR2	2	R1036M
1381.327	10.0	709845	COUNTDOWN_START	n/a	n/a	n/a	n/a	-999	0	11	[0, 0, 0]	n/a	0	1	0	n/a	n/a	0.0	0	0	0	catFR2	2	R1036M
1391.755	0.007	715058	COUNTDOWN_END	n/a	n/a	n/a	n/a	-999	0	11	[0, 0, 0]	n/a	0	1	0	n/a	n/a	0.0	0	0	0	catFR2	2	R1036M
1391.762	1.6	715062	ORIENT	n/a	n/a	n/a	n/a	-999	0	11	[0, 0, 0]	n/a	0	1	0	n/a	n/a	0.0	0	0	0	catFR2	2	R1036M
1395.596	1.6	716979	WORD	n/a	wordpools/wordpool_categorized_EN.txt	WILLOW	Trees	1	0	11	[0, 0, 0]	n/a	0	1	0	n/a	n/a	0.0	0	0	0	catFR2	2	R1036M
1398.13	1.6	718246	WORD	n/a	wordpools/wordpool_categorized_EN.txt	CEDAR	Trees	2	0	11	[0, 0, 0]	n/a	0	1	0	n/a	n/a	0.0	0	0	0	catFR2	2	R1036M
1400.484	4.6	719423	STIM_ON	n/a	n/a	n/a	n/a	-999	0	11	[0, 0, 0]	n/a	1	1	4600	LATD1	LATD2	500.0	50	230	300	catFR2	2	R1036M
1400.697	1.6	719529	WORD	n/a	wordpools/wordpool_categorized_EN.txt	MARIGOLD	Flowers	3	0	11	[0, 0, 0]	n/a	1	1	4600	LATD1	LATD2	500.0	50	230	300	catFR2	2	R1036M
1403.114	1.6	720737	WORD	n/a	wordpools/wordpool_categorized_EN.txt	CARNATION	Flowers	4	0	11	[0, 0, 0]	n/a	1	1	4600	LATD1	LATD2	500.0	50	230	300	catFR2	2	R1036M
1405.548	1.6	721954	WORD	n/a	wordpools/wordpool_categorized_EN.txt	MARKER	OfficeSupplies	5	0	11	[0, 0, 0]	n/a	0	1	0	n/a	n/a	0.0	0	0	0	catFR2	2	R1036M
1408.049	1.6	723205	WORD	n/a	wordpools/wordpool_categorized_EN.txt	FOLDER	OfficeSupplies	6	0	11	[0, 0, 0]	n/a	0	1	0	n/a	n/a	0.0	0	0	0	catFR2	2	R1036M
1410.364	4.6	724362	STIM_ON	n/a	n/a	n/a	n/a	-999	0	11	[0, 0, 0]	n/a	1	1	4600	LATD1	LATD2	500.0	50	230	300	catFR2	2	R1036M
1410.582	1.6	724471	WORD	n/a	wordpools/wordpool_categorized_EN.txt	PINE	Trees	7	1	11	[0, 0, 0]	n/a	1	1	4600	LATD1	LATD2	500.0	50	230	300	catFR2	2	R1036M
1413.083	1.6	725722	WORD	n/a	wordpools/wordpool_categorized_EN.txt	SPRUCE	Trees	8	1	11	[0, 0, 0]	n/a	1	1	4600	LATD1	LATD2	500.0	50	230	300	catFR2	2	R1036M
1415.533	1.6	726947	WORD	n/a	wordpools/wordpool_categorized_EN.txt	NOTEBOOK	OfficeSupplies	9	0	11	[0, 0, 0]	n/a	0	1	0	n/a	n/a	0.0	0	0	0	catFR2	2	R1036M
1418.034	1.6	728197	WORD	n/a	wordpools/wordpool_categorized_EN.txt	STAPLER	OfficeSupplies	10	0	11	[0, 0, 0]	n/a	0	1	0	n/a	n/a	0.0	0	0	0	catFR2	2	R1036M
1420.426	4.6	729393	STIM_ON	n/a	n/a	n/a	n/a	-999	0	11	[0, 0, 0]	n/a	1	1	4600	LATD1	LATD2	500.0	50	230	300	catFR2	2	R1036M
1420.634	1.6	729497	WORD	n/a	wordpools/wordpool_categorized_EN.txt	TULIP	Flowers	11	0	11	[0, 0, 0]	n/a	1	1	4600	LATD1	LATD2	500.0	50	230	300	catFR2	2	R1036M
1423.168	1.6	730764	WORD	n/a	wordpools/wordpool_categorized_EN.txt	DAFFODIL	Flowers	12	1	11	[0, 0, 0]	n/a	1	1	4600	LATD1	LATD2	500.0	50	230	300	catFR2	2	R1036M
1424.785	0.001	731572	DISTRACT_START	n/a	n/a	n/a	n/a	-999	0	11	[0, 0, 0]	n/a	0	1	0	n/a	n/a	0.0	0	0	0	catFR2	2	R1036M
1424.786	0.016	731573	START	n/a	n/a	n/a	n/a	-999	0	11	[-999, -999, -999]	n/a	0	1	0	n/a	n/a	0.0	0	0	0	catFR2	2	R1036M
1424.802	11.219	731581	PROB	11.188	n/a	n/a	n/a	-999	0	11	[3, 6, 8]	17	0	1	0	n/a	n/a	0.0	0	0	0	catFR2	2	R1036M
1436.021	5.084	737190	PROB	5.049	n/a	n/a	n/a	-999	0	11	[8, 2, 1]	11	0	1	0	n/a	n/a	0.0	0	0	0	catFR2	2	R1036M
1441.105	4.348	739732	PROB	4.348	n/a	n/a	n/a	-999	0	11	[4, 1, 5]	10	0	1	0	n/a	n/a	0.0	0	0	0	catFR2	2	R1036M
1445.453	0.018	741906	STOP	n/a	n/a	n/a	n/a	-999	0	11	[-999, -999, -999]	n/a	0	1	0	n/a	n/a	0.0	0	0	0	catFR2	2	R1036M
1445.471	1.102	741915	DISTRACT_END	n/a	n/a	n/a	n/a	-999	0	11	[0, 0, 0]	n/a	0	1	0	n/a	n/a	0.0	0	0	0	catFR2	2	R1036M
1446.573	0.375	742465	REC_START	n/a	n/a	n/a	n/a	-999	0	11	[0, 0, 0]	n/a	0	1	0	n/a	n/a	0.0	0	0	0	catFR2	2	R1036M
1446.948	2.855	742653	REC_WORD	0.375	n/a	DAFFODIL	Flowers	12	1	11	[0, 0, 0]	n/a	0	1	0	n/a	n/a	0.0	0	0	0	catFR2	2	R1036M
1449.803	2.627	744080	REC_WORD	3.23	n/a	SPRUCE	Trees	8	1	11	[0, 0, 0]	n/a	0	1	0	n/a	n/a	0.0	0	0	0	catFR2	2	R1036M
1452.43	2.78	745394	REC_WORD	5.857	n/a	PINE	Trees	7	1	11	[0, 0, 0]	n/a	0	1	0	n/a	n/a	0.0	0	0	0	catFR2	2	R1036M
1455.21	4.853	746784	REC_WORD	8.637	n/a	MAPLE	n/a	-999	0	11	[0, 0, 0]	n/a	0	1	0	n/a	n/a	0.0	0	0	0	catFR2	2	R1036M
1460.063	11.823	749210	REC_WORD	13.49	n/a	WOODS	n/a	-999	0	11	[0, 0, 0]	n/a	0	1	0	n/a	n/a	0.0	0	0	0	catFR2	2	R1036M
1471.886	4.696	755121	REC_WORD	25.313	n/a	LILAC	n/a	-999	0	11	[0, 0, 0]	n/a	0	1	0	n/a	n/a	0.0	0	0	0	catFR2	2	R1036M
1476.582	12.916	757469	REC_END	n/a	n/a	n/a	n/a	-999	0	11	[0, 0, 0]	n/a	0	1	0	n/a	n/a	0.0	0	0	0	catFR2	2	R1036M
1489.498	0.0	763927	TRIAL	n/a	n/a	n/a	n/a	-999	0	12	[0, 0, 0]	n/a	0	1	0	n/a	n/a	0.0	0	0	0	catFR2	2	R1036M
1489.498	10.0	763927	COUNTDOWN_START	n/a	n/a	n/a	n/a	-999	0	12	[0, 0, 0]	n/a	0	1	0	n/a	n/a	0.0	0	0	0	catFR2	2	R1036M
1499.926	0.007	769140	COUNTDOWN_END	n/a	n/a	n/a	n/a	-999	0	12	[0, 0, 0]	n/a	0	1	0	n/a	n/a	0.0	0	0	0	catFR2	2	R1036M
1499.933	1.6	769144	ORIENT	n/a	n/a	n/a	n/a	-999	0	12	[0, 0, 0]	n/a	0	1	0	n/a	n/a	0.0	0	0	0	catFR2	2	R1036M
1503.311	4.6	770833	STIM_ON	n/a	n/a	n/a	n/a	-999	0	12	[0, 0, 0]	n/a	1	1	4600	LATD1	LATD2	500.0	50	230	300	catFR2	2	R1036M
1503.517	1.6	770936	WORD	n/a	wordpools/wordpool_categorized_EN.txt	BED	Furniture	1	1	12	[0, 0, 0]	n/a	1	1	4600	LATD1	LATD2	500.0	50	230	300	catFR2	2	R1036M
1505.901	1.6	772127	WORD	n/a	wordpools/wordpool_categorized_EN.txt	DRESSER	Furniture	2	1	12	[0, 0, 0]	n/a	1	1	4600	LATD1	LATD2	500.0	50	230	300	catFR2	2	R1036M
1508.285	1.6	773319	WORD	n/a	wordpools/wordpool_categorized_EN.txt	PHONE	Electronics	3	0	12	[0, 0, 0]	n/a	0	1	0	n/a	n/a	0.0	0	0	0	catFR2	2	R1036M
1510.668	1.6	774511	WORD	n/a	wordpools/wordpool_categorized_EN.txt	PRINTER	Electronics	4	0	12	[0, 0, 0]	n/a	0	1	0	n/a	n/a	0.0	0	0	0	catFR2	2	R1036M
1513.081	4.6	775717	STIM_ON	n/a	n/a	n/a	n/a	-999	0	12	[0, 0, 0]	n/a	1	1	4600	LATD1	LATD2	500.0	50	230	300	catFR2	2	R1036M
1513.286	1.6	775820	WORD	n/a	wordpools/wordpool_categorized_EN.txt	TROMBONE	Instruments	5	0	12	[0, 0, 0]	n/a	1	1	4600	LATD1	LATD2	500.0	50	230	300	catFR2	2	R1036M
1515.886	1.6	777120	WORD	n/a	wordpools/wordpool_categorized_EN.txt	ORGAN	Instruments	6	0	12	[0, 0, 0]	n/a	1	1	4600	LATD1	LATD2	500.0	50	230	300	catFR2	2	R1036M
1518.486	1.6	778420	WORD	n/a	wordpools/wordpool_categorized_EN.txt	COUCH	Furniture	7	0	12	[0, 0, 0]	n/a	0	1	0	n/a	n/a	0.0	0	0	0	catFR2	2	R1036M
1520.987	1.6	779670	WORD	n/a	wordpools/wordpool_categorized_EN.txt	TABLE	Furniture	8	0	12	[0, 0, 0]	n/a	0	1	0	n/a	n/a	0.0	0	0	0	catFR2	2	R1036M
1523.329	4.6	780841	STIM_ON	n/a	n/a	n/a	n/a	-999	0	12	[0, 0, 0]	n/a	1	1	4600	LATD1	LATD2	500.0	50	230	300	catFR2	2	R1036M
1523.538	1.6	780945	WORD	n/a	wordpools/wordpool_categorized_EN.txt	VIOLIN	Instruments	9	0	12	[0, 0, 0]	n/a	1	1	4600	LATD1	LATD2	500.0	50	230	300	catFR2	2	R1036M
1525.971	1.6	782162	WORD	n/a	wordpools/wordpool_categorized_EN.txt	BASS	Instruments	10	0	12	[0, 0, 0]	n/a	1	1	4600	LATD1	LATD2	500.0	50	230	300	catFR2	2	R1036M
1528.505	1.6	783429	WORD	n/a	wordpools/wordpool_categorized_EN.txt	TELEVISION	Electronics	11	0	12	[0, 0, 0]	n/a	0	1	0	n/a	n/a	0.0	0	0	0	catFR2	2	R1036M
1531.022	1.6	784687	WORD	n/a	wordpools/wordpool_categorized_EN.txt	TABLET	Electronics	12	0	12	[0, 0, 0]	n/a	0	1	0	n/a	n/a	0.0	0	0	0	catFR2	2	R1036M
1532.639	0.001	785496	DISTRACT_START	n/a	n/a	n/a	n/a	-999	0	12	[0, 0, 0]	n/a	0	1	0	n/a	n/a	0.0	0	0	0	catFR2	2	R1036M
1532.64	0.016	785496	START	n/a	n/a	n/a	n/a	-999	0	12	[-999, -999, -999]	n/a	0	1	0	n/a	n/a	0.0	0	0	0	catFR2	2	R1036M
1532.656	4.167	785504	PROB	4.134	n/a	n/a	n/a	-999	0	12	[9, 1, 2]	12	0	1	0	n/a	n/a	0.0	0	0	0	catFR2	2	R1036M
1536.823	7.502	787587	PROB	7.47	n/a	n/a	n/a	-999	0	12	[5, 6, 6]	17	0	1	0	n/a	n/a	0.0	0	0	0	catFR2	2	R1036M
1544.325	7.785	791338	PROB	7.76	n/a	n/a	n/a	-999	0	12	[1, 7, 5]	13	0	1	0	n/a	n/a	0.0	0	0	0	catFR2	2	R1036M
1552.11	5.143	795230	PROB	5.143	n/a	n/a	n/a	-999	0	12	[1, 6, 3]	10	0	1	0	n/a	n/a	0.0	0	0	0	catFR2	2	R1036M
1557.253	0.008	797802	STOP	n/a	n/a	n/a	n/a	-999	0	12	[-999, -999, -999]	n/a	0	1	0	n/a	n/a	0.0	0	0	0	catFR2	2	R1036M
1557.261	1.234	797806	DISTRACT_END	n/a	n/a	n/a	n/a	-999	0	12	[0, 0, 0]	n/a	0	1	0	n/a	n/a	0.0	0	0	0	catFR2	2	R1036M
1558.495	0.653	798423	REC_START	n/a	n/a	n/a	n/a	-999	0	12	[0, 0, 0]	n/a	0	1	0	n/a	n/a	0.0	0	0	0	catFR2	2	R1036M
1559.148	1.93	798749	REC_WORD	0.653	n/a	DRESSER	Furniture	2	1	12	[0, 0, 0]	n/a	0	1	0	n/a	n/a	0.0	0	0	0	catFR2	2	R1036M
1561.078	3.694	799714	REC_WORD	2.583	n/a	BED	Furniture	1	1	12	[0, 0, 0]	n/a	0	1	0	n/a	n/a	0.0	0	0	0	catFR2	2	R1036M
1564.772	2.406	801561	REC_WORD	6.277	n/a	DESK	n/a	-999	0	12	[0, 0, 0]	n/a	0	1	0	n/a	n/a	0.0	0	0	0	catFR2	2	R1036M
1567.178	21.327	802764	REC_WORD	8.683	n/a	MARKER	n/a	-999	0	12	[0, 0, 0]	n/a	0	1	0	n/a	n/a	0.0	0	0	0	catFR2	2	R1036M
1588.505	21.183	813427	REC_END	n/a	n/a	n/a	n/a	-999	0	12	[0, 0, 0]	n/a	0	1	0	n/a	n/a	0.0	0	0	0	catFR2	2	R1036M
1609.688	0.0	824017	TRIAL	n/a	n/a	n/a	n/a	-999	0	13	[0, 0, 0]	n/a	0	1	0	n/a	n/a	0.0	0	0	0	catFR2	2	R1036M
1609.688	10.0	824017	COUNTDOWN_START	n/a	n/a	n/a	n/a	-999	0	13	[0, 0, 0]	n/a	0	1	0	n/a	n/a	0.0	0	0	0	catFR2	2	R1036M
1620.116	0.007	829231	COUNTDOWN_END	n/a	n/a	n/a	n/a	-999	0	13	[0, 0, 0]	n/a	0	1	0	n/a	n/a	0.0	0	0	0	catFR2	2	R1036M
1620.123	1.6	829235	ORIENT	n/a	n/a	n/a	n/a	-999	0	13	[0, 0, 0]	n/a	0	1	0	n/a	n/a	0.0	0	0	0	catFR2	2	R1036M
1623.89	1.6	831118	WORD	n/a	wordpools/wordpool_categorized_EN.txt	BULL	FarmAnimals	1	0	13	[0, 0, 0]	n/a	0	1	0	n/a	n/a	0.0	0	0	0	catFR2	2	R1036M
1626.491	1.6	832418	WORD	n/a	wordpools/wordpool_categorized_EN.txt	SHEEP	FarmAnimals	2	0	13	[0, 0, 0]	n/a	0	1	0	n/a	n/a	0.0	0	0	0	catFR2	2	R1036M
1628.831	4.6	833588	STIM_ON	n/a	n/a	n/a	n/a	-999	0	13	[0, 0, 0]	n/a	1	1	4600	LATD1	LATD2	500.0	50	230	300	catFR2	2	R1036M
1629.041	1.6	833693	WORD	n/a	wordpools/wordpool_categorized_EN.txt	SPOON	KitchenTools	3	0	13	[0, 0, 0]	n/a	1	1	4600	LATD1	LATD2	500.0	50	230	300	catFR2	2	R1036M
1631.642	1.6	834994	WORD	n/a	wordpools/wordpool_categorized_EN.txt	WHISK	KitchenTools	4	0	13	[0, 0, 0]	n/a	1	1	4600	LATD1	LATD2	500.0	50	230	300	catFR2	2	R1036M
1634.059	1.6	836202	WORD	n/a	wordpools/wordpool_categorized_EN.txt	ORANGE	Fruit	5	0	13	[0, 0, 0]	n/a	0	1	0	n/a	n/a	0.0	0	0	0	catFR2	2	R1036M
1636.509	1.6	837427	WORD	n/a	wordpools/wordpool_categorized_EN.txt	PEAR	Fruit	6	0	13	[0, 0, 0]	n/a	0	1	0	n/a	n/a	0.0	0	0	0	catFR2	2	R1036M
1638.877	4.6	838611	STIM_ON	n/a	n/a	n/a	n/a	-999	0	13	[0, 0, 0]	n/a	1	1	4600	LATD1	LATD2	500.0	50	230	300	catFR2	2	R1036M
1639.093	1.6	838719	WORD	n/a	wordpools/wordpool_categorized_EN.txt	CHICKEN	FarmAnimals	7	1	13	[0, 0, 0]	n/a	1	1	4600	LATD1	LATD2	500.0	50	230	300	catFR2	2	R1036M
1641.577	1.6	839961	WORD	n/a	wordpools/wordpool_categorized_EN.txt	HORSE	FarmAnimals	8	0	13	[0, 0, 0]	n/a	1	1	4600	LATD1	LATD2	500.0	50	230	300	catFR2	2	R1036M
1644.144	1.6	841244	WORD	n/a	wordpools/wordpool_categorized_EN.txt	LIME	Fruit	9	0	13	[0, 0, 0]	n/a	0	1	0	n/a	n/a	0.0	0	0	0	catFR2	2	R1036M
1646.712	1.6	842528	WORD	n/a	wordpools/wordpool_categorized_EN.txt	CHERRY	Fruit	10	0	13	[0, 0, 0]	n/a	0	1	0	n/a	n/a	0.0	0	0	0	catFR2	2	R1036M
1649.129	4.6	843737	STIM_ON	n/a	n/a	n/a	n/a	-999	0	13	[0, 0, 0]	n/a	1	1	4600	LATD1	LATD2	500.0	50	230	300	catFR2	2	R1036M
1649.345	1.6	843845	WORD	n/a	wordpools/wordpool_categorized_EN.txt	SPATULA	KitchenTools	11	1	13	[0, 0, 0]	n/a	1	1	4600	LATD1	LATD2	500.0	50	230	300	catFR2	2	R1036M
1651.729	1.6	845037	WORD	n/a	wordpools/wordpool_categorized_EN.txt	KNIFE	KitchenTools	12	0	13	[0, 0, 0]	n/a	1	1	4600	LATD1	LATD2	500.0	50	230	300	catFR2	2	R1036M
1653.346	0.001	845845	DISTRACT_START	n/a	n/a	n/a	n/a	-999	0	13	[0, 0, 0]	n/a	0	1	0	n/a	n/a	0.0	0	0	0	catFR2	2	R1036M
1653.347	0.016	845846	START	n/a	n/a	n/a	n/a	-999	0	13	[-999, -999, -999]	n/a	0	1	0	n/a	n/a	0.0	0	0	0	catFR2	2	R1036M
1653.363	6.584	845854	PROB	6.555	n/a	n/a	n/a	-999	0	13	[3, 5, 1]	9	0	1	0	n/a	n/a	0.0	0	0	0	catFR2	2	R1036M
1659.947	7.085	849145	PROB	7.05	n/a	n/a	n/a	-999	0	13	[6, 3, 8]	17	0	1	0	n/a	n/a	0.0	0	0	0	catFR2	2	R1036M
1667.032	6.838	852688	PROB	6.838	n/a	n/a	n/a	-999	0	13	[4, 7, 9]	20	0	1	0	n/a	n/a	0.0	0	0	0	catFR2	2	R1036M
1673.87	0.014	856106	STOP	n/a	n/a	n/a	n/a	-999	0	13	[-999, -999, -999]	n/a	0	1	0	n/a	n/a	0.0	0	0	0	catFR2	2	R1036M
1673.884	1.217	856113	DISTRACT_END	n/a	n/a	n/a	n/a	-999	0	13	[0, 0, 0]	n/a	0	1	0	n/a	n/a	0.0	0	0	0	catFR2	2	R1036M
1675.101	0.578	856722	REC_START	n/a	n/a	n/a	n/a	-999	0	13	[0, 0, 0]	n/a	0	1	0	n/a	n/a	0.0	0	0	0	catFR2	2	R1036M
1675.679	5.264	857011	REC_WORD	0.578	n/a	SPATULA	KitchenTools	11	1	13	[0, 0, 0]	n/a	0	1	0	n/a	n/a	0.0	0	0	0	catFR2	2	R1036M
1680.943	24.169	859643	REC_WORD	5.842	n/a	CHICKEN	FarmAnimals	7	1	13	[0, 0, 0]	n/a	0	1	0	n/a	n/a	0.0	0	0	0	catFR2	2	R1036M
1705.112	8.262	871726	REC_END	n/a	n/a	n/a	n/a	-999	0	13	[0, 0, 0]	n/a	0	1	0	n/a	n/a	0.0	0	0	0	catFR2	2	R1036M
1713.374	10.0	875857	COUNTDOWN_START	n/a	n/a	n/a	n/a	-999	0	14	[0, 0, 0]	n/a	0	1	0	n/a	n/a	0.0	0	0	0	catFR2	2	R1036M
1713.375	10.427	875857	TRIAL	n/a	n/a	n/a	n/a	-999	0	14	[0, 0, 0]	n/a	0	1	0	n/a	n/a	0.0	0	0	0	catFR2	2	R1036M
1723.802	0.008	881071	COUNTDOWN_END	n/a	n/a	n/a	n/a	-999	0	14	[0, 0, 0]	n/a	0	1	0	n/a	n/a	0.0	0	0	0	catFR2	2	R1036M
1723.81	1.6	881075	ORIENT	n/a	n/a	n/a	n/a	-999	0	14	[0, 0, 0]	n/a	0	1	0	n/a	n/a	0.0	0	0	0	catFR2	2	R1036M
1727.312	4.6	882826	STIM_ON	n/a	n/a	n/a	n/a	-999	0	14	[0, 0, 0]	n/a	1	1	4600	LATD1	LATD2	500.0	50	230	300	catFR2	2	R1036M
1727.527	1.6	882933	WORD	n/a	wordpools/wordpool_categorized_EN.txt	RADIO	Electronics	1	0	14	[0, 0, 0]	n/a	1	1	4600	LATD1	LATD2	500.0	50	230	300	catFR2	2	R1036M
1729.944	1.6	884141	WORD	n/a	wordpools/wordpool_categorized_EN.txt	COMPUTER	Electronics	2	1	14	[0, 0, 0]	n/a	1	1	4600	LATD1	LATD2	500.0	50	230	300	catFR2	2	R1036M
1732.444	1.6	885391	WORD	n/a	wordpools/wordpool_categorized_EN.txt	WINDOW	Building	3	1	14	[0, 0, 0]	n/a	0	1	0	n/a	n/a	0.0	0	0	0	catFR2	2	R1036M
1735.045	1.6	886692	WORD	n/a	wordpools/wordpool_categorized_EN.txt	DOOR	Building	4	1	14	[0, 0, 0]	n/a	0	1	0	n/a	n/a	0.0	0	0	0	catFR2	2	R1036M
1737.237	4.6	887788	STIM_ON	n/a	n/a	n/a	n/a	-999	0	14	[0, 0, 0]	n/a	1	1	4600	LATD1	LATD2	500.0	50	230	300	catFR2	2	R1036M
1737.445	1.6	887892	WORD	n/a	wordpools/wordpool_categorized_EN.txt	CHEESECAKE	Desserts	5	0	14	[0, 0, 0]	n/a	1	1	4600	LATD1	LATD2	500.0	50	230	300	catFR2	2	R1036M
1739.846	1.6	889092	WORD	n/a	wordpools/wordpool_categorized_EN.txt	BROWNIES	Desserts	6	1	14	[0, 0, 0]	n/a	1	1	4600	LATD1	LATD2	500.0	50	230	300	catFR2	2	R1036M
1742.264	1.6	890301	WORD	n/a	wordpools/wordpool_categorized_EN.txt	ROOF	Building	7	0	14	[0, 0, 0]	n/a	0	1	0	n/a	n/a	0.0	0	0	0	catFR2	2	R1036M
1744.864	1.6	891601	WORD	n/a	wordpools/wordpool_categorized_EN.txt	FOUNDATION	Building	8	0	14	[0, 0, 0]	n/a	0	1	0	n/a	n/a	0.0	0	0	0	catFR2	2	R1036M
1747.144	4.6	892741	STIM_ON	n/a	n/a	n/a	n/a	-999	0	14	[0, 0, 0]	n/a	1	1	4600	LATD1	LATD2	500.0	50	230	300	catFR2	2	R1036M
1747.348	1.6	892843	WORD	n/a	wordpools/wordpool_categorized_EN.txt	SCANNER	Electronics	9	1	14	[0, 0, 0]	n/a	1	1	4600	LATD1	LATD2	500.0	50	230	300	catFR2	2	R1036M
1749.782	1.6	894060	WORD	n/a	wordpools/wordpool_categorized_EN.txt	MICROWAVE	Electronics	10	1	14	[0, 0, 0]	n/a	1	1	4600	LATD1	LATD2	500.0	50	230	300	catFR2	2	R1036M
1752.199	1.6	895268	WORD	n/a	wordpools/wordpool_categorized_EN.txt	JELLO	Desserts	11	1	14	[0, 0, 0]	n/a	0	1	0	n/a	n/a	0.0	0	0	0	catFR2	2	R1036M
1754.816	1.6	896577	WORD	n/a	wordpools/wordpool_categorized_EN.txt	COOKIE	Desserts	12	0	14	[0, 0, 0]	n/a	0	1	0	n/a	n/a	0.0	0	0	0	catFR2	2	R1036M
1756.432	0.001	897385	DISTRACT_START	n/a	n/a	n/a	n/a	-999	0	14	[0, 0, 0]	n/a	0	1	0	n/a	n/a	0.0	0	0	0	catFR2	2	R1036M
1756.433	0.015	897385	START	n/a	n/a	n/a	n/a	-999	0	14	[-999, -999, -999]	n/a	0	1	0	n/a	n/a	0.0	0	0	0	catFR2	2	R1036M
1756.448	5.753	897393	PROB	5.726	n/a	n/a	n/a	-999	0	14	[2, 7, 3]	12	0	1	0	n/a	n/a	0.0	0	0	0	catFR2	2	R1036M
1762.201	3.55	900269	PROB	3.525	n/a	n/a	n/a	-999	0	14	[9, 6, 8]	25	0	1	0	n/a	n/a	0.0	0	0	0	catFR2	2	R1036M
1765.751	6.102	902044	PROB	6.079	n/a	n/a	n/a	-999	0	14	[5, 4, 9]	18	0	1	0	n/a	n/a	0.0	0	0	0	catFR2	2	R1036M
1771.853	7.297	905095	PROB	7.297	n/a	n/a	n/a	-999	0	14	[9, 9, 4]	22	0	1	0	n/a	n/a	0.0	0	0	0	catFR2	2	R1036M
1779.15	0.004	908743	STOP	n/a	n/a	n/a	n/a	-999	0	14	[-999, -999, -999]	n/a	0	1	0	n/a	n/a	0.0	0	0	0	catFR2	2	R1036M
1779.154	1.051	908745	DISTRACT_END	n/a	n/a	n/a	n/a	-999	0	14	[0, 0, 0]	n/a	0	1	0	n/a	n/a	0.0	0	0	0	catFR2	2	R1036M
1780.205	0.859	909270	REC_START	n/a	n/a	n/a	n/a	-999	0	14	[0, 0, 0]	n/a	0	1	0	n/a	n/a	0.0	0	0	0	catFR2	2	R1036M
1781.064	1.922	909700	REC_WORD	0.859	n/a	COMPUTER	Electronics	2	1	14	[0, 0, 0]	n/a	0	1	0	n/a	n/a	0.0	0	0	0	catFR2	2	R1036M
1782.986	1.593	910661	REC_WORD	2.781	n/a	DOOR	Building	4	1	14	[0, 0, 0]	n/a	0	1	0	n/a	n/a	0.0	0	0	0	catFR2	2	R1036M
1784.579	1.626	911457	REC_WORD	4.374	n/a	WINDOW	Building	3	1	14	[0, 0, 0]	n/a	0	1	0	n/a	n/a	0.0	0	0	0	catFR2	2	R1036M
1786.205	2.318	912270	REC_WORD	6.0	n/a	MICROWAVE	Electronics	10	1	14	[0, 0, 0]	n/a	0	1	0	n/a	n/a	0.0	0	0	0	catFR2	2	R1036M
1788.523	2.393	913429	REC_WORD	8.318	n/a	SCANNER	Electronics	9	1	14	[0, 0, 0]	n/a	0	1	0	n/a	n/a	0.0	0	0	0	catFR2	2	R1036M
1790.916	3.512	914625	REC_WORD	10.711	n/a	DESK	n/a	-999	0	14	[0, 0, 0]	n/a	0	1	0	n/a	n/a	0.0	0	0	0	catFR2	2	R1036M
1794.428	4.674	916381	REC_WORD	14.223	n/a	JELLO	Desserts	11	1	14	[0, 0, 0]	n/a	0	1	0	n/a	n/a	0.0	0	0	0	catFR2	2	R1036M
1799.102	11.103	918718	REC_WORD	18.897	n/a	BROWNIES	Desserts	6	1	14	[0, 0, 0]	n/a	0	1	0	n/a	n/a	0.0	0	0	0	catFR2	2	R1036M
1810.205	0.01	924269	REC_WORD	30.0	n/a	PEN	n/a	-999	0	14	[0, 0, 0]	n/a	0	1	0	n/a	n/a	0.0	0	0	0	catFR2	2	R1036M
1810.215	64.974	924274	REC_END	n/a	n/a	n/a	n/a	-999	0	14	[0, 0, 0]	n/a	0	1	0	n/a	n/a	0.0	0	0	0	catFR2	2	R1036M
1875.189	0.0	956759	TRIAL	n/a	n/a	n/a	n/a	-999	0	15	[0, 0, 0]	n/a	0	1	0	n/a	n/a	0.0	0	0	0	catFR2	2	R1036M
1875.189	10.0	956759	COUNTDOWN_START	n/a	n/a	n/a	n/a	-999	0	15	[0, 0, 0]	n/a	0	1	0	n/a	n/a	0.0	0	0	0	catFR2	2	R1036M
1885.617	0.008	961973	COUNTDOWN_END	n/a	n/a	n/a	n/a	-999	0	15	[0, 0, 0]	n/a	0	1	0	n/a	n/a	0.0	0	0	0	catFR2	2	R1036M
1885.625	1.6	961977	ORIENT	n/a	n/a	n/a	n/a	-999	0	15	[0, 0, 0]	n/a	0	1	0	n/a	n/a	0.0	0	0	0	catFR2	2	R1036M
1889.112	4.6	963720	STIM_ON	n/a	n/a	n/a	n/a	-999	0	15	[0, 0, 0]	n/a	1	1	4600	LATD1	LATD2	500.0	50	230	300	catFR2	2	R1036M
1889.325	1.6	963827	WORD	n/a	wordpools/wordpool_categorized_EN.txt	MARBLES	Toys	1	0	15	[0, 0, 0]	n/a	1	1	4600	LATD1	LATD2	500.0	50	230	300	catFR2	2	R1036M
1891.742	1.6	965035	WORD	n/a	wordpools/wordpool_categorized_EN.txt	BASKETBALL	Toys	2	0	15	[0, 0, 0]	n/a	1	1	4600	LATD1	LATD2	500.0	50	230	300	catFR2	2	R1036M
1894.343	1.6	966335	WORD	n/a	wordpools/wordpool_categorized_EN.txt	CELLO	Instruments	3	0	15	[0, 0, 0]	n/a	0	1	0	n/a	n/a	0.0	0	0	0	catFR2	2	R1036M
1896.793	1.6	967560	WORD	n/a	wordpools/wordpool_categorized_EN.txt	DRUM	Instruments	4	0	15	[0, 0, 0]	n/a	0	1	0	n/a	n/a	0.0	0	0	0	catFR2	2	R1036M
1899.11	4.6	968719	STIM_ON	n/a	n/a	n/a	n/a	-999	0	15	[0, 0, 0]	n/a	1	1	4600	LATD1	LATD2	500.0	50	230	300	catFR2	2	R1036M
1899.327	1.6	968827	WORD	n/a	wordpools/wordpool_categorized_EN.txt	STREAM	Landscapes	5	1	15	[0, 0, 0]	n/a	1	1	4600	LATD1	LATD2	500.0	50	230	300	catFR2	2	R1036M
1901.711	1.6	970019	WORD	n/a	wordpools/wordpool_categorized_EN.txt	ISLAND	Landscapes	6	0	15	[0, 0, 0]	n/a	1	1	4600	LATD1	LATD2	500.0	50	230	300	catFR2	2	R1036M
1904.228	1.6	971278	WORD	n/a	wordpools/wordpool_categorized_EN.txt	TUBA	Instruments	7	1	15	[0, 0, 0]	n/a	0	1	0	n/a	n/a	0.0	0	0	0	catFR2	2	R1036M
1906.629	1.6	972478	WORD	n/a	wordpools/wordpool_categorized_EN.txt	TRUMPET	Instruments	8	1	15	[0, 0, 0]	n/a	0	1	0	n/a	n/a	0.0	0	0	0	catFR2	2	R1036M
1908.962	4.6	973644	STIM_ON	n/a	n/a	n/a	n/a	-999	0	15	[0, 0, 0]	n/a	1	1	4600	LATD1	LATD2	500.0	50	230	300	catFR2	2	R1036M
1909.179	1.6	973753	WORD	n/a	wordpools/wordpool_categorized_EN.txt	BLOCKS	Toys	9	0	15	[0, 0, 0]	n/a	1	1	4600	LATD1	LATD2	500.0	50	230	300	catFR2	2	R1036M
1911.796	1.6	975061	WORD	n/a	wordpools/wordpool_categorized_EN.txt	BARBIE	Toys	10	1	15	[0, 0, 0]	n/a	1	1	4600	LATD1	LATD2	500.0	50	230	300	catFR2	2	R1036M
1914.247	1.6	976287	WORD	n/a	wordpools/wordpool_categorized_EN.txt	MOUNTAIN	Landscapes	11	0	15	[0, 0, 0]	n/a	0	1	0	n/a	n/a	0.0	0	0	0	catFR2	2	R1036M
1916.797	1.6	977562	WORD	n/a	wordpools/wordpool_categorized_EN.txt	HILLS	Landscapes	12	1	15	[0, 0, 0]	n/a	0	1	0	n/a	n/a	0.0	0	0	0	catFR2	2	R1036M
1918.414	0.001	978370	DISTRACT_START	n/a	n/a	n/a	n/a	-999	0	15	[0, 0, 0]	n/a	0	1	0	n/a	n/a	0.0	0	0	0	catFR2	2	R1036M
1918.415	0.015	978371	START	n/a	n/a	n/a	n/a	-999	0	15	[-999, -999, -999]	n/a	0	1	0	n/a	n/a	0.0	0	0	0	catFR2	2	R1036M
1918.43	5.602	978378	PROB	5.575	n/a	n/a	n/a	-999	0	15	[1, 9, 1]	11	0	1	0	n/a	n/a	0.0	0	0	0	catFR2	2	R1036M
1924.032	6.4	981179	PROB	6.374	n/a	n/a	n/a	-999	0	15	[4, 5, 9]	18	0	1	0	n/a	n/a	0.0	0	0	0	catFR2	2	R1036M
1930.432	4.552	984379	PROB	4.525	n/a	n/a	n/a	-999	0	15	[1, 1, 3]	5	0	1	0	n/a	n/a	0.0	0	0	0	catFR2	2	R1036M
1934.984	3.63	986655	PROB	3.63	n/a	n/a	n/a	-999	0	15	[5, 3, 5]	13	0	1	0	n/a	n/a	0.0	0	0	0	catFR2	2	R1036M
1938.614	0.004	988469	STOP	n/a	n/a	n/a	n/a	-999	0	15	[-999, -999, -999]	n/a	0	1	0	n/a	n/a	0.0	0	0	0	catFR2	2	R1036M
1938.618	1.118	988471	DISTRACT_END	n/a	n/a	n/a	n/a	-999	0	15	[0, 0, 0]	n/a	0	1	0	n/a	n/a	0.0	0	0	0	catFR2	2	R1036M
1939.736	0.658	989030	REC_START	n/a	n/a	n/a	n/a	-999	0	15	[0, 0, 0]	n/a	0	1	0	n/a	n/a	0.0	0	0	0	catFR2	2	R1036M
1940.394	2.266	989359	REC_WORD	0.658	n/a	HILLS	Landscapes	12	1	15	[0, 0, 0]	n/a	0	1	0	n/a	n/a	0.0	0	0	0	catFR2	2	R1036M
1942.66	2.216	990492	REC_WORD	2.924	n/a	BARBIE	Toys	10	1	15	[0, 0, 0]	n/a	0	1	0	n/a	n/a	0.0	0	0	0	catFR2	2	R1036M
1944.876	2.41	991600	REC_WORD	5.14	n/a	STREAM	Landscapes	5	1	15	[0, 0, 0]	n/a	0	1	0	n/a	n/a	0.0	0	0	0	catFR2	2	R1036M
1947.286	2.056	992805	REC_WORD	7.55	n/a	TUBA	Instruments	7	1	15	[0, 0, 0]	n/a	0	1	0	n/a	n/a	0.0	0	0	0	catFR2	2	R1036M
1949.342	4.292	993833	REC_WORD	9.606	n/a	TRUMPET	Instruments	8	1	15	[0, 0, 0]	n/a	0	1	0	n/a	n/a	0.0	0	0	0	catFR2	2	R1036M
1953.634	16.112	995979	REC_WORD	13.898	n/a	VIOLIN	n/a	-999	0	15	[0, 0, 0]	n/a	0	1	0	n/a	n/a	0.0	0	0	0	catFR2	2	R1036M
1969.746	8.33	1004034	REC_END	n/a	n/a	n/a	n/a	-999	0	15	[0, 0, 0]	n/a	0	1	0	n/a	n/a	0.0	0	0	0	catFR2	2	R1036M
1978.076	0.0	1008199	TRIAL	n/a	n/a	n/a	n/a	-999	0	16	[0, 0, 0]	n/a	0	1	0	n/a	n/a	0.0	0	0	0	catFR2	2	R1036M
1978.076	10.0	1008199	COUNTDOWN_START	n/a	n/a	n/a	n/a	-999	0	16	[0, 0, 0]	n/a	0	1	0	n/a	n/a	0.0	0	0	0	catFR2	2	R1036M
1988.504	0.007	1013413	COUNTDOWN_END	n/a	n/a	n/a	n/a	-999	0	16	[0, 0, 0]	n/a	0	1	0	n/a	n/a	0.0	0	0	0	catFR2	2	R1036M
1988.511	1.6	1013416	ORIENT	n/a	n/a	n/a	n/a	-999	0	16	[0, 0, 0]	n/a	0	1	0	n/a	n/a	0.0	0	0	0	catFR2	2	R1036M
1991.907	4.6	1015114	STIM_ON	n/a	n/a	n/a	n/a	-999	0	16	[0, 0, 0]	n/a	1	1	4600	LATD1	LATD2	500.0	50	230	300	catFR2	2	R1036M
1992.112	1.6	1015217	WORD	n/a	wordpools/wordpool_categorized_EN.txt	BUS	Vehicles	1	0	16	[0, 0, 0]	n/a	1	1	4600	LATD1	LATD2	500.0	50	230	300	catFR2	2	R1036M
1994.562	1.6	1016442	WORD	n/a	wordpools/wordpool_categorized_EN.txt	MOPED	Vehicles	2	0	16	[0, 0, 0]	n/a	1	1	4600	LATD1	LATD2	500.0	50	230	300	catFR2	2	R1036M
1997.163	1.6	1017742	WORD	n/a	wordpools/wordpool_categorized_EN.txt	COW	FarmAnimals	3	0	16	[0, 0, 0]	n/a	0	1	0	n/a	n/a	0.0	0	0	0	catFR2	2	R1036M
1999.597	1.6	1018959	WORD	n/a	wordpools/wordpool_categorized_EN.txt	PIG	FarmAnimals	4	1	16	[0, 0, 0]	n/a	0	1	0	n/a	n/a	0.0	0	0	0	catFR2	2	R1036M
2001.915	4.6	1020118	STIM_ON	n/a	n/a	n/a	n/a	-999	0	16	[0, 0, 0]	n/a	1	1	4600	LATD1	LATD2	500.0	50	230	300	catFR2	2	R1036M
2002.131	1.6	1020226	WORD	n/a	wordpools/wordpool_categorized_EN.txt	FREEZER	Appliances	5	1	16	[0, 0, 0]	n/a	1	1	4600	LATD1	LATD2	500.0	50	230	300	catFR2	2	R1036M
2004.581	1.6	1021451	WORD	n/a	wordpools/wordpool_categorized_EN.txt	DRYER	Appliances	6	0	16	[0, 0, 0]	n/a	1	1	4600	LATD1	LATD2	500.0	50	230	300	catFR2	2	R1036M
2007.115	1.6	1022718	WORD	n/a	wordpools/wordpool_categorized_EN.txt	BOAT	Vehicles	7	0	16	[0, 0, 0]	n/a	0	1	0	n/a	n/a	0.0	0	0	0	catFR2	2	R1036M
2009.549	1.6	1023935	WORD	n/a	wordpools/wordpool_categorized_EN.txt	MOTORCYCLE	Vehicles	8	0	16	[0, 0, 0]	n/a	0	1	0	n/a	n/a	0.0	0	0	0	catFR2	2	R1036M
2011.819	4.6	1025069	STIM_ON	n/a	n/a	n/a	n/a	-999	0	16	[0, 0, 0]	n/a	1	1	4600	LATD1	LATD2	500.0	50	230	300	catFR2	2	R1036M
2012.032	1.6	1025176	WORD	n/a	wordpools/wordpool_categorized_EN.txt	REFRIGERATOR	Appliances	9	1	16	[0, 0, 0]	n/a	1	1	4600	LATD1	LATD2	500.0	50	230	300	catFR2	2	R1036M
2014.65	1.6	1026485	WORD	n/a	wordpools/wordpool_categorized_EN.txt	DISHWASHER	Appliances	10	0	16	[0, 0, 0]	n/a	1	1	4600	LATD1	LATD2	500.0	50	230	300	catFR2	2	R1036M
2017.1	1.6	1027710	WORD	n/a	wordpools/wordpool_categorized_EN.txt	LAMB	FarmAnimals	11	1	16	[0, 0, 0]	n/a	0	1	0	n/a	n/a	0.0	0	0	0	catFR2	2	R1036M
2019.667	1.6	1028993	WORD	n/a	wordpools/wordpool_categorized_EN.txt	GOAT	FarmAnimals	12	0	16	[0, 0, 0]	n/a	0	1	0	n/a	n/a	0.0	0	0	0	catFR2	2	R1036M
2021.284	0.001	1029802	DISTRACT_START	n/a	n/a	n/a	n/a	-999	0	16	[0, 0, 0]	n/a	0	1	0	n/a	n/a	0.0	0	0	0	catFR2	2	R1036M
2021.285	0.016	1029802	START	n/a	n/a	n/a	n/a	-999	0	16	[-999, -999, -999]	n/a	0	1	0	n/a	n/a	0.0	0	0	0	catFR2	2	R1036M
2021.301	7.835	1029810	PROB	7.801	n/a	n/a	n/a	-999	0	16	[4, 7, 6]	17	0	1	0	n/a	n/a	0.0	0	0	0	catFR2	2	R1036M
2029.136	4.617	1033727	PROB	4.59	n/a	n/a	n/a	-999	0	16	[6, 5, 1]	12	0	1	0	n/a	n/a	0.0	0	0	0	catFR2	2	R1036M
2033.753	4.201	1036036	PROB	4.181	n/a	n/a	n/a	-999	0	16	[7, 5, 9]	32	0	1	0	n/a	n/a	0.0	0	0	0	catFR2	2	R1036M
2037.954	4.9	1038136	PROB	4.9	n/a	n/a	n/a	-999	0	16	[1, 2, 2]	5	0	1	0	n/a	n/a	0.0	0	0	0	catFR2	2	R1036M
2042.854	0.018	1040586	STOP	n/a	n/a	n/a	n/a	-999	0	16	[-999, -999, -999]	n/a	0	1	0	n/a	n/a	0.0	0	0	0	catFR2	2	R1036M
2042.872	1.034	1040595	DISTRACT_END	n/a	n/a	n/a	n/a	-999	0	16	[0, 0, 0]	n/a	0	1	0	n/a	n/a	0.0	0	0	0	catFR2	2	R1036M
2043.906	2.146	1041112	REC_START	n/a	n/a	n/a	n/a	-999	0	16	[0, 0, 0]	n/a	0	1	0	n/a	n/a	0.0	0	0	0	catFR2	2	R1036M
2046.052	2.707	1042185	REC_WORD	2.146	n/a	REFRIGERATOR	Appliances	9	1	16	[0, 0, 0]	n/a	0	1	0	n/a	n/a	0.0	0	0	0	catFR2	2	R1036M
2048.759	2.121	1043538	REC_WORD	4.853	n/a	FREEZER	Appliances	5	1	16	[0, 0, 0]	n/a	0	1	0	n/a	n/a	0.0	0	0	0	catFR2	2	R1036M
2050.88	2.812	1044599	REC_WORD	6.974	n/a	STOVE	n/a	-999	0	16	[0, 0, 0]	n/a	0	1	0	n/a	n/a	0.0	0	0	0	catFR2	2	R1036M
2053.692	2.354	1046005	REC_WORD	9.786	n/a	LAMB	FarmAnimals	11	1	16	[0, 0, 0]	n/a	0	1	0	n/a	n/a	0.0	0	0	0	catFR2	2	R1036M
2056.046	3.96	1047181	REC_WORD	12.14	n/a	DUCK	n/a	-999	0	16	[0, 0, 0]	n/a	0	1	0	n/a	n/a	0.0	0	0	0	catFR2	2	R1036M
2060.006	3.83	1049161	REC_WORD	16.1	n/a	PIG	FarmAnimals	4	1	16	[0, 0, 0]	n/a	0	1	0	n/a	n/a	0.0	0	0	0	catFR2	2	R1036M
2063.836	10.079	1051076	REC_WORD	19.93	n/a	MICROWAVE	n/a	-999	0	16	[0, 0, 0]	n/a	0	1	0	n/a	n/a	0.0	0	0	0	catFR2	2	R1036M
2073.915	15.249	1056115	REC_END	n/a	n/a	n/a	n/a	-999	0	16	[0, 0, 0]	n/a	0	1	0	n/a	n/a	0.0	0	0	0	catFR2	2	R1036M
2089.164	0.0	1063739	TRIAL	n/a	n/a	n/a	n/a	-999	0	17	[0, 0, 0]	n/a	0	1	0	n/a	n/a	0.0	0	0	0	catFR2	2	R1036M
2089.164	10.0	1063739	COUNTDOWN_START	n/a	n/a	n/a	n/a	-999	0	17	[0, 0, 0]	n/a	0	1	0	n/a	n/a	0.0	0	0	0	catFR2	2	R1036M
2099.592	0.007	1068953	COUNTDOWN_END	n/a	n/a	n/a	n/a	-999	0	17	[0, 0, 0]	n/a	0	1	0	n/a	n/a	0.0	0	0	0	catFR2	2	R1036M
2099.599	1.6	1068956	ORIENT	n/a	n/a	n/a	n/a	-999	0	17	[0, 0, 0]	n/a	0	1	0	n/a	n/a	0.0	0	0	0	catFR2	2	R1036M
2103.094	4.6	1070704	STIM_ON	n/a	n/a	n/a	n/a	-999	0	17	[0, 0, 0]	n/a	1	1	4600	LATD1	LATD2	500.0	50	230	300	catFR2	2	R1036M
2103.3	1.6	1070807	WORD	n/a	wordpools/wordpool_categorized_EN.txt	CABINET	Furniture	1	1	17	[0, 0, 0]	n/a	1	1	4600	LATD1	LATD2	500.0	50	230	300	catFR2	2	R1036M
2105.751	1.6	1072032	WORD	n/a	wordpools/wordpool_categorized_EN.txt	DESK	Furniture	2	1	17	[0, 0, 0]	n/a	1	1	4600	LATD1	LATD2	500.0	50	230	300	catFR2	2	R1036M
2108.151	1.6	1073232	WORD	n/a	wordpools/wordpool_categorized_EN.txt	SUNFLOWER	Flowers	3	0	17	[0, 0, 0]	n/a	0	1	0	n/a	n/a	0.0	0	0	0	catFR2	2	R1036M
2110.602	1.6	1074458	WORD	n/a	wordpools/wordpool_categorized_EN.txt	PETUNIA	Flowers	4	0	17	[0, 0, 0]	n/a	0	1	0	n/a	n/a	0.0	0	0	0	catFR2	2	R1036M
2112.979	4.6	1075646	STIM_ON	n/a	n/a	n/a	n/a	-999	0	17	[0, 0, 0]	n/a	1	1	4600	LATD1	LATD2	500.0	50	230	300	catFR2	2	R1036M
2113.186	1.6	1075750	WORD	n/a	wordpools/wordpool_categorized_EN.txt	ROACH	Insects	5	0	17	[0, 0, 0]	n/a	1	1	4600	LATD1	LATD2	500.0	50	230	300	catFR2	2	R1036M
2115.753	1.6	1077033	WORD	n/a	wordpools/wordpool_categorized_EN.txt	CRICKET	Insects	6	0	17	[0, 0, 0]	n/a	1	1	4600	LATD1	LATD2	500.0	50	230	300	catFR2	2	R1036M
2118.286	1.6	1078299	WORD	n/a	wordpools/wordpool_categorized_EN.txt	ROSE	Flowers	7	0	17	[0, 0, 0]	n/a	0	1	0	n/a	n/a	0.0	0	0	0	catFR2	2	R1036M
2120.87	1.6	1079591	WORD	n/a	wordpools/wordpool_categorized_EN.txt	VIOLET	Flowers	8	0	17	[0, 0, 0]	n/a	0	1	0	n/a	n/a	0.0	0	0	0	catFR2	2	R1036M
2123.204	4.6	1080758	STIM_ON	n/a	n/a	n/a	n/a	-999	0	17	[0, 0, 0]	n/a	1	1	4600	LATD1	LATD2	500.0	50	230	300	catFR2	2	R1036M
2123.42	1.6	1080866	WORD	n/a	wordpools/wordpool_categorized_EN.txt	BOOKCASE	Furniture	9	1	17	[0, 0, 0]	n/a	1	1	4600	LATD1	LATD2	500.0	50	230	300	catFR2	2	R1036M
2125.855	1.6	1082084	WORD	n/a	wordpools/wordpool_categorized_EN.txt	CHAIR	Furniture	10	0	17	[0, 0, 0]	n/a	1	1	4600	LATD1	LATD2	500.0	50	230	300	catFR2	2	R1036M
2128.437	1.6	1083375	WORD	n/a	wordpools/wordpool_categorized_EN.txt	GNAT	Insects	11	0	17	[0, 0, 0]	n/a	0	1	0	n/a	n/a	0.0	0	0	0	catFR2	2	R1036M
2130.955	1.6	1084633	WORD	n/a	wordpools/wordpool_categorized_EN.txt	SPIDER	Insects	12	0	17	[0, 0, 0]	n/a	0	1	0	n/a	n/a	0.0	0	0	0	catFR2	2	R1036M
2132.572	0.001	1085442	DISTRACT_START	n/a	n/a	n/a	n/a	-999	0	17	[0, 0, 0]	n/a	0	1	0	n/a	n/a	0.0	0	0	0	catFR2	2	R1036M
2132.573	0.016	1085442	START	n/a	n/a	n/a	n/a	-999	0	17	[-999, -999, -999]	n/a	0	1	0	n/a	n/a	0.0	0	0	0	catFR2	2	R1036M
2132.589	7.335	1085450	PROB	7.313	n/a	n/a	n/a	-999	0	17	[3, 9, 3]	15	0	1	0	n/a	n/a	0.0	0	0	0	catFR2	2	R1036M
2139.924	4.017	1089118	PROB	3.986	n/a	n/a	n/a	-999	0	17	[3, 3, 1]	7	0	1	0	n/a	n/a	0.0	0	0	0	catFR2	2	R1036M
2143.941	9.649	1091126	PROB	9.649	n/a	n/a	n/a	-999	0	17	[7, 4, 8]	19	0	1	0	n/a	n/a	0.0	0	0	0	catFR2	2	R1036M
2153.59	0.003	1095950	STOP	n/a	n/a	n/a	n/a	-999	0	17	[-999, -999, -999]	n/a	0	1	0	n/a	n/a	0.0	0	0	0	catFR2	2	R1036M
2153.593	1.134	1095952	DISTRACT_END	n/a	n/a	n/a	n/a	-999	0	17	[0, 0, 0]	n/a	0	1	0	n/a	n/a	0.0	0	0	0	catFR2	2	R1036M
2154.727	1.769	1096519	REC_START	n/a	n/a	n/a	n/a	-999	0	17	[0, 0, 0]	n/a	0	1	0	n/a	n/a	0.0	0	0	0	catFR2	2	R1036M
2156.496	2.098	1097403	REC_WORD	1.769	n/a	DESK	Furniture	2	1	17	[0, 0, 0]	n/a	0	1	0	n/a	n/a	0.0	0	0	0	catFR2	2	R1036M
2158.594	3.007	1098452	REC_WORD	3.867	n/a	DRAWER	n/a	-999	0	17	[0, 0, 0]	n/a	0	1	0	n/a	n/a	0.0	0	0	0	catFR2	2	R1036M
2161.601	6.562	1099955	REC_WORD	6.874	n/a	CABINET	Furniture	1	1	17	[0, 0, 0]	n/a	0	1	0	n/a	n/a	0.0	0	0	0	catFR2	2	R1036M
2168.163	5.197	1103236	REC_WORD	13.436	n/a	BOOKCASE	Furniture	9	1	17	[0, 0, 0]	n/a	0	1	0	n/a	n/a	0.0	0	0	0	catFR2	2	R1036M
2173.36	11.378	1105835	REC_WORD	18.633	n/a	SHELF	n/a	-999	0	17	[0, 0, 0]	n/a	0	1	0	n/a	n/a	0.0	0	0	0	catFR2	2	R1036M
2184.738	75.043	1111523	REC_END	n/a	n/a	n/a	n/a	-999	0	17	[0, 0, 0]	n/a	0	1	0	n/a	n/a	0.0	0	0	0	catFR2	2	R1036M
2259.781	0.0	1149042	TRIAL	n/a	n/a	n/a	n/a	-999	0	18	[0, 0, 0]	n/a	0	0	0	n/a	n/a	0.0	0	0	0	catFR2	2	R1036M
2259.781	10.0	1149042	COUNTDOWN_START	n/a	n/a	n/a	n/a	-999	0	18	[0, 0, 0]	n/a	0	0	0	n/a	n/a	0.0	0	0	0	catFR2	2	R1036M
