onset	duration	sample	trial_type	response_time	stim_file	item_name	category	serialpos	recalled	list	test	answer	stimulation	stim_list	stim_duration	anode_label	cathode_label	amplitude	pulse_freq	n_pulses	pulse_width	experiment	session	subject
0.0	55.384	8892	SESS_START	n/a	n/a	n/a	n/a	-999	0	-999	[0, 0, 0]	n/a	0	0	0	n/a	n/a	0.0	0	0	0	catFR2	2	R1026D
55.384	10.0	97502	COUNTDOWN_START	n/a	n/a	n/a	n/a	-999	0	-999	[0, 0, 0]	n/a	0	0	0	n/a	n/a	0.0	0	0	0	catFR2	2	R1026D
65.812	3.74	114186	COUNTDOWN_END	n/a	n/a	n/a	n/a	-999	0	-999	[0, 0, 0]	n/a	0	0	0	n/a	n/a	0.0	0	0	0	catFR2	2	R1026D
69.552	1.6	120170	PRACTICE_WORD	n/a	n/a	BEAM	n/a	-999	0	1	[0, 0, 0]	n/a	0	0	0	n/a	n/a	0.0	0	0	0	catFR2	2	R1026D
71.986	1.6	124064	PRACTICE_WORD	n/a	n/a	ATTIC	n/a	-999	0	2	[0, 0, 0]	n/a	0	0	0	n/a	n/a	0.0	0	0	0	catFR2	2	R1026D
74.371	1.6	127880	PRACTICE_WORD	n/a	n/a	WAGON	n/a	-999	0	3	[0, 0, 0]	n/a	0	0	0	n/a	n/a	0.0	0	0	0	catFR2	2	R1026D
76.854	1.6	131853	PRACTICE_WORD	n/a	n/a	COTTON	n/a	-999	0	4	[0, 0, 0]	n/a	0	0	0	n/a	n/a	0.0	0	0	0	catFR2	2	R1026D
79.272	1.6	135721	PRACTICE_WORD	n/a	n/a	RHINO	n/a	-999	0	5	[0, 0, 0]	n/a	0	0	0	n/a	n/a	0.0	0	0	0	catFR2	2	R1026D
81.905	1.6	139934	PRACTICE_WORD	n/a	n/a	IRON	n/a	-999	0	6	[0, 0, 0]	n/a	0	0	0	n/a	n/a	0.0	0	0	0	catFR2	2	R1026D
84.439	1.6	143988	PRACTICE_WORD	n/a	n/a	CAMEL	n/a	-999	0	7	[0, 0, 0]	n/a	0	0	0	n/a	n/a	0.0	0	0	0	catFR2	2	R1026D
86.906	1.6	147935	PRACTICE_WORD	n/a	n/a	FLOOD	n/a	-999	0	8	[0, 0, 0]	n/a	0	0	0	n/a	n/a	0.0	0	0	0	catFR2	2	R1026D
89.34	1.6	151829	PRACTICE_WORD	n/a	n/a	WATCH	n/a	-999	0	9	[0, 0, 0]	n/a	0	0	0	n/a	n/a	0.0	0	0	0	catFR2	2	R1026D
91.806	1.6	155775	PRACTICE_WORD	n/a	n/a	CHEST	n/a	-999	0	10	[0, 0, 0]	n/a	0	0	0	n/a	n/a	0.0	0	0	0	catFR2	2	R1026D
94.175	1.6	159565	PRACTICE_WORD	n/a	n/a	RING	n/a	-999	0	11	[0, 0, 0]	n/a	0	0	0	n/a	n/a	0.0	0	0	0	catFR2	2	R1026D
96.641	1.6	163510	PRACTICE_WORD	n/a	n/a	TONGUE	n/a	-999	0	12	[0, 0, 0]	n/a	0	0	0	n/a	n/a	0.0	0	0	0	catFR2	2	R1026D
98.259	0.0	166099	PRACTICE_DISTRACT_START	n/a	n/a	n/a	n/a	-999	0	-999	[0, 0, 0]	n/a	0	0	0	n/a	n/a	0.0	0	0	0	catFR2	2	R1026D
98.259	0.016	166099	START	n/a	n/a	n/a	n/a	-999	0	-1	[-999, -999, -999]	n/a	0	-999	0	n/a	n/a	0.0	0	0	0	catFR2	2	R1026D
98.275	4.084	166125	PROB	4.059	n/a	n/a	n/a	-999	0	-1	[6, 4, 8]	18	0	-999	0	n/a	n/a	0.0	0	0	0	catFR2	2	R1026D
102.359	4.034	172659	PROB	4.007	n/a	n/a	n/a	-999	0	-1	[4, 6, 7]	17	0	-999	0	n/a	n/a	0.0	0	0	0	catFR2	2	R1026D
106.393	6.051	179113	PROB	6.021	n/a	n/a	n/a	-999	0	-1	[8, 5, 6]	19	0	-999	0	n/a	n/a	0.0	0	0	0	catFR2	2	R1026D
112.444	3.167	188794	PROB	3.137	n/a	n/a	n/a	-999	0	-1	[8, 8, 4]	20	0	-999	0	n/a	n/a	0.0	0	0	0	catFR2	2	R1026D
115.611	3.899	193861	PROB	3.899	n/a	n/a	n/a	-999	0	-1	[3, 9, 7]	19	0	-999	0	n/a	n/a	0.0	0	0	0	catFR2	2	R1026D
119.51	0.018	200099	STOP	n/a	n/a	n/a	n/a	-999	0	-1	[-999, -999, -999]	n/a	0	-999	0	n/a	n/a	0.0	0	0	0	catFR2	2	R1026D
119.528	0.552	200128	PRACTICE_DISTRACT_END	n/a	n/a	n/a	n/a	-999	0	-999	[0, 0, 0]	n/a	0	0	0	n/a	n/a	0.0	0	0	0	catFR2	2	R1026D
120.08	30.515	201011	PRACTICE_REC_START	n/a	n/a	n/a	n/a	-999	0	-999	[0, 0, 0]	n/a	0	0	0	n/a	n/a	0.0	0	0	0	catFR2	2	R1026D
150.595	8.841	249832	PRACTICE_REC_END	n/a	n/a	n/a	n/a	-999	0	-999	[0, 0, 0]	n/a	0	0	0	n/a	n/a	0.0	0	0	0	catFR2	2	R1026D
159.436	10.0	263977	COUNTDOWN_START	n/a	n/a	n/a	n/a	-999	0	1	[0, 0, 0]	n/a	0	0	0	n/a	n/a	0.0	0	0	0	catFR2	2	R1026D
159.437	10.427	263979	TRIAL	n/a	n/a	n/a	n/a	-999	0	1	[0, 0, 0]	n/a	0	0	0	n/a	n/a	0.0	0	0	0	catFR2	2	R1026D
169.864	0.007	280661	COUNTDOWN_END	n/a	n/a	n/a	n/a	-999	0	1	[0, 0, 0]	n/a	0	0	0	n/a	n/a	0.0	0	0	0	catFR2	2	R1026D
169.871	1.6	280672	ORIENT	n/a	n/a	n/a	n/a	-999	0	1	[0, 0, 0]	n/a	0	0	0	n/a	n/a	0.0	0	0	0	catFR2	2	R1026D
173.605	1.6	286647	WORD	n/a	wordpools/wordpool_categorized_EN.txt	OYSTER	OceanAnimals	1	1	1	[0, 0, 0]	n/a	0	0	0	n/a	n/a	0.0	0	0	0	catFR2	2	R1026D
176.055	1.6	290566	WORD	n/a	wordpools/wordpool_categorized_EN.txt	WHALE	OceanAnimals	2	0	1	[0, 0, 0]	n/a	0	0	0	n/a	n/a	0.0	0	0	0	catFR2	2	R1026D
178.572	1.6	294593	WORD	n/a	wordpools/wordpool_categorized_EN.txt	COOKIE	Desserts	3	0	1	[0, 0, 0]	n/a	0	0	0	n/a	n/a	0.0	0	0	0	catFR2	2	R1026D
181.039	1.6	298540	WORD	n/a	wordpools/wordpool_categorized_EN.txt	COBBLER	Desserts	4	0	1	[0, 0, 0]	n/a	0	0	0	n/a	n/a	0.0	0	0	0	catFR2	2	R1026D
183.64	1.6	302702	WORD	n/a	wordpools/wordpool_categorized_EN.txt	CROW	Birds	5	0	1	[0, 0, 0]	n/a	0	0	0	n/a	n/a	0.0	0	0	0	catFR2	2	R1026D
186.09	1.6	306622	WORD	n/a	wordpools/wordpool_categorized_EN.txt	GOOSE	Birds	6	0	1	[0, 0, 0]	n/a	0	0	0	n/a	n/a	0.0	0	0	0	catFR2	2	R1026D
188.624	1.6	310676	WORD	n/a	wordpools/wordpool_categorized_EN.txt	PIE	Desserts	7	0	1	[0, 0, 0]	n/a	0	0	0	n/a	n/a	0.0	0	0	0	catFR2	2	R1026D
191.075	1.6	314597	WORD	n/a	wordpools/wordpool_categorized_EN.txt	FUDGE	Desserts	8	0	1	[0, 0, 0]	n/a	0	0	0	n/a	n/a	0.0	0	0	0	catFR2	2	R1026D
193.542	1.6	318544	WORD	n/a	wordpools/wordpool_categorized_EN.txt	OCTOPUS	OceanAnimals	9	1	1	[0, 0, 0]	n/a	0	0	0	n/a	n/a	0.0	0	0	0	catFR2	2	R1026D
196.042	1.6	322544	WORD	n/a	wordpools/wordpool_categorized_EN.txt	DOLPHIN	OceanAnimals	10	0	1	[0, 0, 0]	n/a	0	0	0	n/a	n/a	0.0	0	0	0	catFR2	2	R1026D
198.643	1.6	326705	WORD	n/a	wordpools/wordpool_categorized_EN.txt	HAWK	Birds	11	0	1	[0, 0, 0]	n/a	0	0	0	n/a	n/a	0.0	0	0	0	catFR2	2	R1026D
201.093	1.6	330625	WORD	n/a	wordpools/wordpool_categorized_EN.txt	PIGEON	Birds	12	0	1	[0, 0, 0]	n/a	0	0	0	n/a	n/a	0.0	0	0	0	catFR2	2	R1026D
202.71	0.001	333212	DISTRACT_START	n/a	n/a	n/a	n/a	-999	0	1	[0, 0, 0]	n/a	0	0	0	n/a	n/a	0.0	0	0	0	catFR2	2	R1026D
202.711	0.016	333214	START	n/a	n/a	n/a	n/a	-999	0	1	[-999, -999, -999]	n/a	0	0	0	n/a	n/a	0.0	0	0	0	catFR2	2	R1026D
202.727	4.067	333239	PROB	4.046	n/a	n/a	n/a	-999	0	1	[3, 6, 5]	14	0	0	0	n/a	n/a	0.0	0	0	0	catFR2	2	R1026D
206.794	9.553	339746	PROB	9.524	n/a	n/a	n/a	-999	0	1	[6, 7, 9]	22	0	0	0	n/a	n/a	0.0	0	0	0	catFR2	2	R1026D
216.347	3.067	355030	PROB	3.043	n/a	n/a	n/a	-999	0	1	[8, 9, 1]	18	0	0	0	n/a	n/a	0.0	0	0	0	catFR2	2	R1026D
219.414	3.415	359937	PROB	3.415	n/a	n/a	n/a	-999	0	1	[1, 6, 3]	10	0	0	0	n/a	n/a	0.0	0	0	0	catFR2	2	R1026D
222.829	0.018	365401	STOP	n/a	n/a	n/a	n/a	-999	0	1	[-999, -999, -999]	n/a	0	0	0	n/a	n/a	0.0	0	0	0	catFR2	2	R1026D
222.847	1.051	365430	DISTRACT_END	n/a	n/a	n/a	n/a	-999	0	1	[0, 0, 0]	n/a	0	0	0	n/a	n/a	0.0	0	0	0	catFR2	2	R1026D
223.898	3.373	367111	REC_START	n/a	n/a	n/a	n/a	-999	0	1	[0, 0, 0]	n/a	0	0	0	n/a	n/a	0.0	0	0	0	catFR2	2	R1026D
227.271	6.347	372508	REC_WORD	3.373	n/a	OYSTER	OceanAnimals	1	1	1	[0, 0, 0]	n/a	0	0	0	n/a	n/a	0.0	0	0	0	catFR2	2	R1026D
233.618	1.084	382663	REC_WORD	9.72	n/a	OCTOPUS	OceanAnimals	9	1	1	[0, 0, 0]	n/a	0	0	0	n/a	n/a	0.0	0	0	0	catFR2	2	R1026D
234.702	19.207	384397	REC_WORD_VV	10.804	n/a	<>	n/a	-999	0	1	[0, 0, 0]	n/a	0	0	0	n/a	n/a	0.0	0	0	0	catFR2	2	R1026D
253.909	2.595	415127	REC_END	n/a	n/a	n/a	n/a	-999	0	1	[0, 0, 0]	n/a	0	0	0	n/a	n/a	0.0	0	0	0	catFR2	2	R1026D
256.504	10.0	419278	COUNTDOWN_START	n/a	n/a	n/a	n/a	-999	0	2	[0, 0, 0]	n/a	0	0	0	n/a	n/a	0.0	0	0	0	catFR2	2	R1026D
256.504	10.428	419278	TRIAL	n/a	n/a	n/a	n/a	-999	0	2	[0, 0, 0]	n/a	0	0	0	n/a	n/a	0.0	0	0	0	catFR2	2	R1026D
266.932	0.006	435962	COUNTDOWN_END	n/a	n/a	n/a	n/a	-999	0	2	[0, 0, 0]	n/a	0	0	0	n/a	n/a	0.0	0	0	0	catFR2	2	R1026D
266.938	1.6	435972	ORIENT	n/a	n/a	n/a	n/a	-999	0	2	[0, 0, 0]	n/a	0	0	0	n/a	n/a	0.0	0	0	0	catFR2	2	R1026D
270.656	1.6	441920	WORD	n/a	wordpools/wordpool_categorized_EN.txt	MIXER	Appliances	1	0	2	[0, 0, 0]	n/a	0	0	0	n/a	n/a	0.0	0	0	0	catFR2	2	R1026D
273.207	1.6	446002	WORD	n/a	wordpools/wordpool_categorized_EN.txt	IRON	Appliances	2	0	2	[0, 0, 0]	n/a	0	0	0	n/a	n/a	0.0	0	0	0	catFR2	2	R1026D
275.723	1.6	450027	WORD	n/a	wordpools/wordpool_categorized_EN.txt	BLUEBIRD	Birds	3	1	2	[0, 0, 0]	n/a	0	0	0	n/a	n/a	0.0	0	0	0	catFR2	2	R1026D
278.125	1.6	453870	WORD	n/a	wordpools/wordpool_categorized_EN.txt	ROBIN	Birds	4	1	2	[0, 0, 0]	n/a	0	0	0	n/a	n/a	0.0	0	0	0	catFR2	2	R1026D
280.708	1.6	458003	WORD	n/a	wordpools/wordpool_categorized_EN.txt	TIGER	Zoo	5	0	2	[0, 0, 0]	n/a	0	0	0	n/a	n/a	0.0	0	0	0	catFR2	2	R1026D
283.142	1.6	461897	WORD	n/a	wordpools/wordpool_categorized_EN.txt	GORILLA	Zoo	6	0	2	[0, 0, 0]	n/a	0	0	0	n/a	n/a	0.0	0	0	0	catFR2	2	R1026D
285.709	1.6	466004	WORD	n/a	wordpools/wordpool_categorized_EN.txt	DISHWASHER	Appliances	7	0	2	[0, 0, 0]	n/a	0	0	0	n/a	n/a	0.0	0	0	0	catFR2	2	R1026D
288.109	1.6	469844	WORD	n/a	wordpools/wordpool_categorized_EN.txt	FREEZER	Appliances	8	0	2	[0, 0, 0]	n/a	0	0	0	n/a	n/a	0.0	0	0	0	catFR2	2	R1026D
290.559	1.6	473764	WORD	n/a	wordpools/wordpool_categorized_EN.txt	CHIMPANZEE	Zoo	9	0	2	[0, 0, 0]	n/a	0	0	0	n/a	n/a	0.0	0	0	0	catFR2	2	R1026D
292.927	1.6	477552	WORD	n/a	wordpools/wordpool_categorized_EN.txt	LION	Zoo	10	0	2	[0, 0, 0]	n/a	0	0	0	n/a	n/a	0.0	0	0	0	catFR2	2	R1026D
295.411	1.6	481526	WORD	n/a	wordpools/wordpool_categorized_EN.txt	FINCH	Birds	11	1	2	[0, 0, 0]	n/a	0	0	0	n/a	n/a	0.0	0	0	0	catFR2	2	R1026D
297.927	1.6	485552	WORD	n/a	wordpools/wordpool_categorized_EN.txt	SEAGULL	Birds	12	0	2	[0, 0, 0]	n/a	0	0	0	n/a	n/a	0.0	0	0	0	catFR2	2	R1026D
299.544	0.002	488139	DISTRACT_START	n/a	n/a	n/a	n/a	-999	0	2	[0, 0, 0]	n/a	0	0	0	n/a	n/a	0.0	0	0	0	catFR2	2	R1026D
299.546	0.015	488142	START	n/a	n/a	n/a	n/a	-999	0	2	[-999, -999, -999]	n/a	0	0	0	n/a	n/a	0.0	0	0	0	catFR2	2	R1026D
299.561	5.802	488166	PROB	5.781	n/a	n/a	n/a	-999	0	2	[9, 2, 6]	17	0	0	0	n/a	n/a	0.0	0	0	0	catFR2	2	R1026D
305.363	8.617	497449	PROB	8.586	n/a	n/a	n/a	-999	0	2	[3, 9, 7]	19	0	0	0	n/a	n/a	0.0	0	0	0	catFR2	2	R1026D
313.98	5.101	511235	PROB	5.073	n/a	n/a	n/a	-999	0	2	[8, 8, 9]	25	0	0	0	n/a	n/a	0.0	0	0	0	catFR2	2	R1026D
319.081	3.868	519397	PROB	3.868	n/a	n/a	n/a	-999	0	2	[4, 6, 8]	18	0	0	0	n/a	n/a	0.0	0	0	0	catFR2	2	R1026D
322.949	0.016	525585	STOP	n/a	n/a	n/a	n/a	-999	0	2	[-999, -999, -999]	n/a	0	0	0	n/a	n/a	0.0	0	0	0	catFR2	2	R1026D
322.965	1.068	525611	DISTRACT_END	n/a	n/a	n/a	n/a	-999	0	2	[0, 0, 0]	n/a	0	0	0	n/a	n/a	0.0	0	0	0	catFR2	2	R1026D
324.033	4.43	527319	REC_START	n/a	n/a	n/a	n/a	-999	0	2	[0, 0, 0]	n/a	0	0	0	n/a	n/a	0.0	0	0	0	catFR2	2	R1026D
328.463	1.534	534407	REC_WORD	4.43	n/a	BLUEBIRD	Birds	3	1	2	[0, 0, 0]	n/a	0	0	0	n/a	n/a	0.0	0	0	0	catFR2	2	R1026D
329.997	1.702	536861	REC_WORD	5.964	n/a	ROBIN	Birds	4	1	2	[0, 0, 0]	n/a	0	0	0	n/a	n/a	0.0	0	0	0	catFR2	2	R1026D
331.699	22.345	539584	REC_WORD	7.666	n/a	FINCH	Birds	11	1	2	[0, 0, 0]	n/a	0	0	0	n/a	n/a	0.0	0	0	0	catFR2	2	R1026D
354.044	2.179	575335	REC_END	n/a	n/a	n/a	n/a	-999	0	2	[0, 0, 0]	n/a	0	0	0	n/a	n/a	0.0	0	0	0	catFR2	2	R1026D
356.223	0.0	578821	TRIAL	n/a	n/a	n/a	n/a	-999	0	3	[0, 0, 0]	n/a	0	1	0	n/a	n/a	0.0	0	0	0	catFR2	2	R1026D
356.223	10.0	578821	COUNTDOWN_START	n/a	n/a	n/a	n/a	-999	0	3	[0, 0, 0]	n/a	0	1	0	n/a	n/a	0.0	0	0	0	catFR2	2	R1026D
366.651	0.006	595505	COUNTDOWN_END	n/a	n/a	n/a	n/a	-999	0	3	[0, 0, 0]	n/a	0	1	0	n/a	n/a	0.0	0	0	0	catFR2	2	R1026D
366.657	1.6	595514	ORIENT	n/a	n/a	n/a	n/a	-999	0	3	[0, 0, 0]	n/a	0	1	0	n/a	n/a	0.0	0	0	0	catFR2	2	R1026D
370.155	4.6	601111	STIM_ON	n/a	n/a	n/a	n/a	-999	0	3	[0, 0, 0]	n/a	1	1	4600	LOTD3	LOTD4	500.0	50	230	300	catFR2	2	R1026D
370.358	1.6	601436	WORD	n/a	wordpools/wordpool_categorized_EN.txt	VACUUM	Appliances	1	1	3	[0, 0, 0]	n/a	1	1	4600	LOTD3	LOTD4	500.0	50	230	300	catFR2	2	R1026D
372.891	1.6	605488	WORD	n/a	wordpools/wordpool_categorized_EN.txt	REFRIGERATOR	Appliances	2	1	3	[0, 0, 0]	n/a	1	1	4600	LOTD3	LOTD4	500.0	50	230	300	catFR2	2	R1026D
375.409	1.6	609517	WORD	n/a	wordpools/wordpool_categorized_EN.txt	CRAB	OceanAnimals	3	0	3	[0, 0, 0]	n/a	0	1	0	n/a	n/a	0.0	0	0	0	catFR2	2	R1026D
377.909	1.6	613517	WORD	n/a	wordpools/wordpool_categorized_EN.txt	TURTLE	OceanAnimals	4	0	3	[0, 0, 0]	n/a	0	1	0	n/a	n/a	0.0	0	0	0	catFR2	2	R1026D
380.24	4.6	617246	STIM_ON	n/a	n/a	n/a	n/a	-999	0	3	[0, 0, 0]	n/a	1	1	4600	LOTD3	LOTD4	500.0	50	230	300	catFR2	2	R1026D
380.444	1.6	617572	WORD	n/a	wordpools/wordpool_categorized_EN.txt	VALLEY	Landscapes	5	1	3	[0, 0, 0]	n/a	1	1	4600	LOTD3	LOTD4	500.0	50	230	300	catFR2	2	R1026D
382.943	1.6	621571	WORD	n/a	wordpools/wordpool_categorized_EN.txt	LAKE	Landscapes	6	0	3	[0, 0, 0]	n/a	1	1	4600	LOTD3	LOTD4	500.0	50	230	300	catFR2	2	R1026D
385.411	1.6	625519	WORD	n/a	wordpools/wordpool_categorized_EN.txt	JELLYFISH	OceanAnimals	7	0	3	[0, 0, 0]	n/a	0	1	0	n/a	n/a	0.0	0	0	0	catFR2	2	R1026D
387.844	1.6	629412	WORD	n/a	wordpools/wordpool_categorized_EN.txt	FISH	OceanAnimals	8	0	3	[0, 0, 0]	n/a	0	1	0	n/a	n/a	0.0	0	0	0	catFR2	2	R1026D
390.226	4.6	633223	STIM_ON	n/a	n/a	n/a	n/a	-999	0	3	[0, 0, 0]	n/a	1	1	4600	LOTD3	LOTD4	500.0	50	230	300	catFR2	2	R1026D
390.429	1.6	633548	WORD	n/a	wordpools/wordpool_categorized_EN.txt	TOASTER	Appliances	9	1	3	[0, 0, 0]	n/a	1	1	4600	LOTD3	LOTD4	500.0	50	230	300	catFR2	2	R1026D
392.962	1.6	637600	WORD	n/a	wordpools/wordpool_categorized_EN.txt	OVEN	Appliances	10	1	3	[0, 0, 0]	n/a	1	1	4600	LOTD3	LOTD4	500.0	50	230	300	catFR2	2	R1026D
395.43	1.6	641549	WORD	n/a	wordpools/wordpool_categorized_EN.txt	FOREST	Landscapes	11	0	3	[0, 0, 0]	n/a	0	1	0	n/a	n/a	0.0	0	0	0	catFR2	2	R1026D
397.963	1.6	645601	WORD	n/a	wordpools/wordpool_categorized_EN.txt	BEACH	Landscapes	12	0	3	[0, 0, 0]	n/a	0	1	0	n/a	n/a	0.0	0	0	0	catFR2	2	R1026D
399.579	0.001	648187	DISTRACT_START	n/a	n/a	n/a	n/a	-999	0	3	[0, 0, 0]	n/a	0	1	0	n/a	n/a	0.0	0	0	0	catFR2	2	R1026D
399.58	0.016	648189	START	n/a	n/a	n/a	n/a	-999	0	3	[-999, -999, -999]	n/a	0	1	0	n/a	n/a	0.0	0	0	0	catFR2	2	R1026D
399.596	9.052	648214	PROB	9.025	n/a	n/a	n/a	-999	0	3	[2, 3, 2]	7	0	1	0	n/a	n/a	0.0	0	0	0	catFR2	2	R1026D
408.648	3.618	662697	PROB	3.59	n/a	n/a	n/a	-999	0	3	[9, 2, 1]	12	0	1	0	n/a	n/a	0.0	0	0	0	catFR2	2	R1026D
412.266	5.6	668485	PROB	5.571	n/a	n/a	n/a	-999	0	3	[4, 7, 8]	19	0	1	0	n/a	n/a	0.0	0	0	0	catFR2	2	R1026D
417.866	2.564	677445	PROB	2.564	n/a	n/a	n/a	-999	0	3	[2, 8, 1]	11	0	1	0	n/a	n/a	0.0	0	0	0	catFR2	2	R1026D
420.43	0.004	681547	STOP	n/a	n/a	n/a	n/a	-999	0	3	[-999, -999, -999]	n/a	0	1	0	n/a	n/a	0.0	0	0	0	catFR2	2	R1026D
420.434	1.068	681553	DISTRACT_END	n/a	n/a	n/a	n/a	-999	0	3	[0, 0, 0]	n/a	0	1	0	n/a	n/a	0.0	0	0	0	catFR2	2	R1026D
421.502	1.54	683262	REC_START	n/a	n/a	n/a	n/a	-999	0	3	[0, 0, 0]	n/a	0	1	0	n/a	n/a	0.0	0	0	0	catFR2	2	R1026D
423.042	1.332	685726	REC_WORD	1.54	n/a	VACUUM	Appliances	1	1	3	[0, 0, 0]	n/a	0	1	0	n/a	n/a	0.0	0	0	0	catFR2	2	R1026D
424.374	2.607	687857	REC_WORD	2.872	n/a	REFRIGERATOR	Appliances	2	1	3	[0, 0, 0]	n/a	0	1	0	n/a	n/a	0.0	0	0	0	catFR2	2	R1026D
426.981	4.943	692028	REC_WORD	5.479	n/a	VALLEY	Landscapes	5	1	3	[0, 0, 0]	n/a	0	1	0	n/a	n/a	0.0	0	0	0	catFR2	2	R1026D
431.924	2.183	699936	REC_WORD	10.422	n/a	RIVER	n/a	-999	0	3	[0, 0, 0]	n/a	0	1	0	n/a	n/a	0.0	0	0	0	catFR2	2	R1026D
434.107	2.025	703429	REC_WORD	12.605	n/a	TOASTER	Appliances	9	1	3	[0, 0, 0]	n/a	0	1	0	n/a	n/a	0.0	0	0	0	catFR2	2	R1026D
436.132	15.382	706669	REC_WORD	14.63	n/a	OVEN	Appliances	10	1	3	[0, 0, 0]	n/a	0	1	0	n/a	n/a	0.0	0	0	0	catFR2	2	R1026D
451.514	3.442	731279	REC_END	n/a	n/a	n/a	n/a	-999	0	3	[0, 0, 0]	n/a	0	1	0	n/a	n/a	0.0	0	0	0	catFR2	2	R1026D
454.956	10.0	736786	COUNTDOWN_START	n/a	n/a	n/a	n/a	-999	0	4	[0, 0, 0]	n/a	0	0	0	n/a	n/a	0.0	0	0	0	catFR2	2	R1026D
454.956	10.428	736786	TRIAL	n/a	n/a	n/a	n/a	-999	0	4	[0, 0, 0]	n/a	0	0	0	n/a	n/a	0.0	0	0	0	catFR2	2	R1026D
465.384	0.009	753470	COUNTDOWN_END	n/a	n/a	n/a	n/a	-999	0	4	[0, 0, 0]	n/a	0	0	0	n/a	n/a	0.0	0	0	0	catFR2	2	R1026D
465.393	1.6	753484	ORIENT	n/a	n/a	n/a	n/a	-999	0	4	[0, 0, 0]	n/a	0	0	0	n/a	n/a	0.0	0	0	0	catFR2	2	R1026D
469.042	1.6	759322	WORD	n/a	wordpools/wordpool_categorized_EN.txt	LILAC	Flowers	1	1	4	[0, 0, 0]	n/a	0	0	0	n/a	n/a	0.0	0	0	0	catFR2	2	R1026D
471.626	1.6	763456	WORD	n/a	wordpools/wordpool_categorized_EN.txt	DAFFODIL	Flowers	2	1	4	[0, 0, 0]	n/a	0	0	0	n/a	n/a	0.0	0	0	0	catFR2	2	R1026D
474.043	1.6	767323	WORD	n/a	wordpools/wordpool_categorized_EN.txt	ZEBRA	Zoo	3	0	4	[0, 0, 0]	n/a	0	0	0	n/a	n/a	0.0	0	0	0	catFR2	2	R1026D
476.644	1.6	771485	WORD	n/a	wordpools/wordpool_categorized_EN.txt	ELEPHANT	Zoo	4	0	4	[0, 0, 0]	n/a	0	0	0	n/a	n/a	0.0	0	0	0	catFR2	2	R1026D
479.162	1.6	775513	WORD	n/a	wordpools/wordpool_categorized_EN.txt	CHEESECAKE	Desserts	5	0	4	[0, 0, 0]	n/a	0	0	0	n/a	n/a	0.0	0	0	0	catFR2	2	R1026D
481.711	1.6	779592	WORD	n/a	wordpools/wordpool_categorized_EN.txt	CUPCAKE	Desserts	6	0	4	[0, 0, 0]	n/a	0	0	0	n/a	n/a	0.0	0	0	0	catFR2	2	R1026D
484.213	1.6	783595	WORD	n/a	wordpools/wordpool_categorized_EN.txt	PETUNIA	Flowers	7	0	4	[0, 0, 0]	n/a	0	0	0	n/a	n/a	0.0	0	0	0	catFR2	2	R1026D
486.779	1.6	787700	WORD	n/a	wordpools/wordpool_categorized_EN.txt	VIOLET	Flowers	8	1	4	[0, 0, 0]	n/a	0	0	0	n/a	n/a	0.0	0	0	0	catFR2	2	R1026D
489.18	1.6	791541	WORD	n/a	wordpools/wordpool_categorized_EN.txt	MOUSSE	Desserts	9	0	4	[0, 0, 0]	n/a	0	0	0	n/a	n/a	0.0	0	0	0	catFR2	2	R1026D
491.596	1.6	795407	WORD	n/a	wordpools/wordpool_categorized_EN.txt	JELLO	Desserts	10	0	4	[0, 0, 0]	n/a	0	0	0	n/a	n/a	0.0	0	0	0	catFR2	2	R1026D
494.03	1.6	799301	WORD	n/a	wordpools/wordpool_categorized_EN.txt	GIRAFFE	Zoo	11	1	4	[0, 0, 0]	n/a	0	0	0	n/a	n/a	0.0	0	0	0	catFR2	2	R1026D
496.597	1.6	803408	WORD	n/a	wordpools/wordpool_categorized_EN.txt	ORANGUTAN	Zoo	12	1	4	[0, 0, 0]	n/a	0	0	0	n/a	n/a	0.0	0	0	0	catFR2	2	R1026D
498.215	0.001	805997	DISTRACT_START	n/a	n/a	n/a	n/a	-999	0	4	[0, 0, 0]	n/a	0	0	0	n/a	n/a	0.0	0	0	0	catFR2	2	R1026D
498.216	0.016	805998	START	n/a	n/a	n/a	n/a	-999	0	4	[-999, -999, -999]	n/a	0	0	0	n/a	n/a	0.0	0	0	0	catFR2	2	R1026D
498.232	6.333	806024	PROB	6.301	n/a	n/a	n/a	-999	0	4	[5, 4, 6]	15	0	0	0	n/a	n/a	0.0	0	0	0	catFR2	2	R1026D
504.565	4.686	816156	PROB	4.657	n/a	n/a	n/a	-999	0	4	[6, 7, 6]	19	0	0	0	n/a	n/a	0.0	0	0	0	catFR2	2	R1026D
509.251	8.55	823653	PROB	8.514	n/a	n/a	n/a	-999	0	4	[5, 8, 9]	22	0	0	0	n/a	n/a	0.0	0	0	0	catFR2	2	R1026D
517.801	2.485	837333	PROB	2.485	n/a	n/a	n/a	-999	0	4	[8, 2, 8]	18	0	0	0	n/a	n/a	0.0	0	0	0	catFR2	2	R1026D
520.286	0.017	841308	STOP	n/a	n/a	n/a	n/a	-999	0	4	[-999, -999, -999]	n/a	0	0	0	n/a	n/a	0.0	0	0	0	catFR2	2	R1026D
520.303	1.2	841336	DISTRACT_END	n/a	n/a	n/a	n/a	-999	0	4	[0, 0, 0]	n/a	0	0	0	n/a	n/a	0.0	0	0	0	catFR2	2	R1026D
521.503	4.841	843256	REC_START	n/a	n/a	n/a	n/a	-999	0	4	[0, 0, 0]	n/a	0	0	0	n/a	n/a	0.0	0	0	0	catFR2	2	R1026D
526.344	5.305	851001	REC_WORD	4.841	n/a	VIOLET	Flowers	8	1	4	[0, 0, 0]	n/a	0	0	0	n/a	n/a	0.0	0	0	0	catFR2	2	R1026D
531.649	0.977	859488	REC_WORD	10.146	n/a	GIRAFFE	Zoo	11	1	4	[0, 0, 0]	n/a	0	0	0	n/a	n/a	0.0	0	0	0	catFR2	2	R1026D
532.626	2.469	861051	REC_WORD_VV	11.123	n/a	<>	n/a	-999	0	4	[0, 0, 0]	n/a	0	0	0	n/a	n/a	0.0	0	0	0	catFR2	2	R1026D
535.095	0.729	865002	REC_WORD_VV	13.592	n/a	<>	n/a	-999	0	4	[0, 0, 0]	n/a	0	0	0	n/a	n/a	0.0	0	0	0	catFR2	2	R1026D
535.824	3.148	866168	REC_WORD	14.321	n/a	ORANGUTAN	Zoo	12	1	4	[0, 0, 0]	n/a	0	0	0	n/a	n/a	0.0	0	0	0	catFR2	2	R1026D
538.972	7.247	871205	REC_WORD	17.469	n/a	CHIMPANZEE	n/a	-999	0	4	[0, 0, 0]	n/a	0	0	0	n/a	n/a	0.0	0	0	0	catFR2	2	R1026D
546.219	5.08	882799	REC_WORD	24.716	n/a	DAFFODIL	Flowers	2	1	4	[0, 0, 0]	n/a	0	0	0	n/a	n/a	0.0	0	0	0	catFR2	2	R1026D
551.299	0.223	890927	REC_WORD	29.796	n/a	LILAC	Flowers	1	1	4	[0, 0, 0]	n/a	0	0	0	n/a	n/a	0.0	0	0	0	catFR2	2	R1026D
551.522	2.336	891284	REC_END	n/a	n/a	n/a	n/a	-999	0	4	[0, 0, 0]	n/a	0	0	0	n/a	n/a	0.0	0	0	0	catFR2	2	R1026D
553.858	0.0	895021	TRIAL	n/a	n/a	n/a	n/a	-999	0	5	[0, 0, 0]	n/a	0	1	0	n/a	n/a	0.0	0	0	0	catFR2	2	R1026D
553.858	10.0	895021	COUNTDOWN_START	n/a	n/a	n/a	n/a	-999	0	5	[0, 0, 0]	n/a	0	1	0	n/a	n/a	0.0	0	0	0	catFR2	2	R1026D
564.286	0.008	911705	COUNTDOWN_END	n/a	n/a	n/a	n/a	-999	0	5	[0, 0, 0]	n/a	0	1	0	n/a	n/a	0.0	0	0	0	catFR2	2	R1026D
564.294	1.6	911718	ORIENT	n/a	n/a	n/a	n/a	-999	0	5	[0, 0, 0]	n/a	0	1	0	n/a	n/a	0.0	0	0	0	catFR2	2	R1026D
567.674	4.6	917125	STIM_ON	n/a	n/a	n/a	n/a	-999	0	5	[0, 0, 0]	n/a	1	1	4600	LOTD3	LOTD4	500.0	50	230	300	catFR2	2	R1026D
567.877	1.6	917450	WORD	n/a	wordpools/wordpool_categorized_EN.txt	FOLDER	OfficeSupplies	1	0	5	[0, 0, 0]	n/a	1	1	4600	LOTD3	LOTD4	500.0	50	230	300	catFR2	2	R1026D
570.495	1.6	921639	WORD	n/a	wordpools/wordpool_categorized_EN.txt	BINDER	OfficeSupplies	2	0	5	[0, 0, 0]	n/a	1	1	4600	LOTD3	LOTD4	500.0	50	230	300	catFR2	2	R1026D
573.095	1.6	925799	WORD	n/a	wordpools/wordpool_categorized_EN.txt	HICKORY	Trees	3	0	5	[0, 0, 0]	n/a	0	1	0	n/a	n/a	0.0	0	0	0	catFR2	2	R1026D
575.645	1.6	929878	WORD	n/a	wordpools/wordpool_categorized_EN.txt	OAK	Trees	4	0	5	[0, 0, 0]	n/a	0	1	0	n/a	n/a	0.0	0	0	0	catFR2	2	R1026D
577.813	4.6	933347	STIM_ON	n/a	n/a	n/a	n/a	-999	0	5	[0, 0, 0]	n/a	1	1	4600	LOTD3	LOTD4	500.0	50	230	300	catFR2	2	R1026D
578.029	1.6	933693	WORD	n/a	wordpools/wordpool_categorized_EN.txt	LOBSTER	OceanAnimals	5	0	5	[0, 0, 0]	n/a	1	1	4600	LOTD3	LOTD4	500.0	50	230	300	catFR2	2	R1026D
580.646	1.6	937880	WORD	n/a	wordpools/wordpool_categorized_EN.txt	SHRIMP	OceanAnimals	6	0	5	[0, 0, 0]	n/a	1	1	4600	LOTD3	LOTD4	500.0	50	230	300	catFR2	2	R1026D
583.164	1.6	941908	WORD	n/a	wordpools/wordpool_categorized_EN.txt	WILLOW	Trees	7	0	5	[0, 0, 0]	n/a	0	1	0	n/a	n/a	0.0	0	0	0	catFR2	2	R1026D
585.597	1.6	945801	WORD	n/a	wordpools/wordpool_categorized_EN.txt	SPRUCE	Trees	8	0	5	[0, 0, 0]	n/a	0	1	0	n/a	n/a	0.0	0	0	0	catFR2	2	R1026D
587.78	4.6	949293	STIM_ON	n/a	n/a	n/a	n/a	-999	0	5	[0, 0, 0]	n/a	1	1	4600	LOTD3	LOTD4	500.0	50	230	300	catFR2	2	R1026D
587.997	1.6	949641	WORD	n/a	wordpools/wordpool_categorized_EN.txt	MARKER	OfficeSupplies	9	0	5	[0, 0, 0]	n/a	1	1	4600	LOTD3	LOTD4	500.0	50	230	300	catFR2	2	R1026D
590.598	1.6	953802	WORD	n/a	wordpools/wordpool_categorized_EN.txt	PEN	OfficeSupplies	10	0	5	[0, 0, 0]	n/a	1	1	4600	LOTD3	LOTD4	500.0	50	230	300	catFR2	2	R1026D
593.199	1.6	957963	WORD	n/a	wordpools/wordpool_categorized_EN.txt	SQUID	OceanAnimals	11	0	5	[0, 0, 0]	n/a	0	1	0	n/a	n/a	0.0	0	0	0	catFR2	2	R1026D
595.665	1.6	961909	WORD	n/a	wordpools/wordpool_categorized_EN.txt	PLANKTON	OceanAnimals	12	0	5	[0, 0, 0]	n/a	0	1	0	n/a	n/a	0.0	0	0	0	catFR2	2	R1026D
597.266	0.002	964470	DISTRACT_START	n/a	n/a	n/a	n/a	-999	0	5	[0, 0, 0]	n/a	0	1	0	n/a	n/a	0.0	0	0	0	catFR2	2	R1026D
597.268	0.015	964474	START	n/a	n/a	n/a	n/a	-999	0	5	[-999, -999, -999]	n/a	0	1	0	n/a	n/a	0.0	0	0	0	catFR2	2	R1026D
597.283	4.151	964498	PROB	4.131	n/a	n/a	n/a	-999	0	5	[8, 8, 2]	18	0	1	0	n/a	n/a	0.0	0	0	0	catFR2	2	R1026D
601.434	3.316	971139	PROB	3.283	n/a	n/a	n/a	-999	0	5	[5, 4, 6]	15	0	1	0	n/a	n/a	0.0	0	0	0	catFR2	2	R1026D
604.75	3.452	976444	PROB	3.424	n/a	n/a	n/a	-999	0	5	[6, 9, 1]	16	0	1	0	n/a	n/a	0.0	0	0	0	catFR2	2	R1026D
608.202	4.284	981967	PROB	4.26	n/a	n/a	n/a	-999	0	5	[7, 8, 2]	17	0	1	0	n/a	n/a	0.0	0	0	0	catFR2	2	R1026D
612.486	4.267	988821	PROB	4.231	n/a	n/a	n/a	-999	0	5	[3, 8, 5]	16	0	1	0	n/a	n/a	0.0	0	0	0	catFR2	2	R1026D
616.753	6.076	995648	PROB	6.076	n/a	n/a	n/a	-999	0	5	[3, 3, 8]	14	0	1	0	n/a	n/a	0.0	0	0	0	catFR2	2	R1026D
622.829	0.008	1005369	STOP	n/a	n/a	n/a	n/a	-999	0	5	[-999, -999, -999]	n/a	0	1	0	n/a	n/a	0.0	0	0	0	catFR2	2	R1026D
622.837	1.168	1005382	DISTRACT_END	n/a	n/a	n/a	n/a	-999	0	5	[0, 0, 0]	n/a	0	1	0	n/a	n/a	0.0	0	0	0	catFR2	2	R1026D
624.005	30.0	1007251	REC_START	n/a	n/a	n/a	n/a	-999	0	5	[0, 0, 0]	n/a	0	1	0	n/a	n/a	0.0	0	0	0	catFR2	2	R1026D
654.005	0.011	1055248	REC_WORD_VV	30.0	n/a	<>	n/a	-999	0	5	[0, 0, 0]	n/a	0	1	0	n/a	n/a	0.0	0	0	0	catFR2	2	R1026D
654.016	3.094	1055266	REC_END	n/a	n/a	n/a	n/a	-999	0	5	[0, 0, 0]	n/a	0	1	0	n/a	n/a	0.0	0	0	0	catFR2	2	R1026D
657.11	0.0	1060216	TRIAL	n/a	n/a	n/a	n/a	-999	0	6	[0, 0, 0]	n/a	0	1	0	n/a	n/a	0.0	0	0	0	catFR2	2	R1026D
657.11	10.0	1060216	COUNTDOWN_START	n/a	n/a	n/a	n/a	-999	0	6	[0, 0, 0]	n/a	0	1	0	n/a	n/a	0.0	0	0	0	catFR2	2	R1026D
667.538	0.007	1076900	COUNTDOWN_END	n/a	n/a	n/a	n/a	-999	0	6	[0, 0, 0]	n/a	0	1	0	n/a	n/a	0.0	0	0	0	catFR2	2	R1026D
667.545	1.6	1076911	ORIENT	n/a	n/a	n/a	n/a	-999	0	6	[0, 0, 0]	n/a	0	1	0	n/a	n/a	0.0	0	0	0	catFR2	2	R1026D
671.13	1.6	1082647	WORD	n/a	wordpools/wordpool_categorized_EN.txt	DOOR	Building	1	0	6	[0, 0, 0]	n/a	0	1	0	n/a	n/a	0.0	0	0	0	catFR2	2	R1026D
673.613	1.6	1086619	WORD	n/a	wordpools/wordpool_categorized_EN.txt	ROOF	Building	2	0	6	[0, 0, 0]	n/a	0	1	0	n/a	n/a	0.0	0	0	0	catFR2	2	R1026D
675.914	4.6	1090301	STIM_ON	n/a	n/a	n/a	n/a	-999	0	6	[0, 0, 0]	n/a	1	1	4600	LOTD3	LOTD4	500.0	50	230	300	catFR2	2	R1026D
676.131	1.6	1090648	WORD	n/a	wordpools/wordpool_categorized_EN.txt	ROOSTER	FarmAnimals	3	1	6	[0, 0, 0]	n/a	1	1	4600	LOTD3	LOTD4	500.0	50	230	300	catFR2	2	R1026D
678.631	1.6	1094648	WORD	n/a	wordpools/wordpool_categorized_EN.txt	GOAT	FarmAnimals	4	1	6	[0, 0, 0]	n/a	1	1	4600	LOTD3	LOTD4	500.0	50	230	300	catFR2	2	R1026D
681.199	1.6	1098756	WORD	n/a	wordpools/wordpool_categorized_EN.txt	MOSQUITO	Insects	5	1	6	[0, 0, 0]	n/a	0	1	0	n/a	n/a	0.0	0	0	0	catFR2	2	R1026D
683.765	1.6	1102862	WORD	n/a	wordpools/wordpool_categorized_EN.txt	BEETLE	Insects	6	0	6	[0, 0, 0]	n/a	0	1	0	n/a	n/a	0.0	0	0	0	catFR2	2	R1026D
685.981	4.6	1106407	STIM_ON	n/a	n/a	n/a	n/a	-999	0	6	[0, 0, 0]	n/a	1	1	4600	LOTD3	LOTD4	500.0	50	230	300	catFR2	2	R1026D
686.2	1.6	1106758	WORD	n/a	wordpools/wordpool_categorized_EN.txt	SHEEP	FarmAnimals	7	0	6	[0, 0, 0]	n/a	1	1	4600	LOTD3	LOTD4	500.0	50	230	300	catFR2	2	R1026D
688.833	1.6	1110970	WORD	n/a	wordpools/wordpool_categorized_EN.txt	CHICKEN	FarmAnimals	8	0	6	[0, 0, 0]	n/a	1	1	4600	LOTD3	LOTD4	500.0	50	230	300	catFR2	2	R1026D
691.317	1.6	1114944	WORD	n/a	wordpools/wordpool_categorized_EN.txt	ROOM	Building	9	1	6	[0, 0, 0]	n/a	0	1	0	n/a	n/a	0.0	0	0	0	catFR2	2	R1026D
693.733	1.6	1118810	WORD	n/a	wordpools/wordpool_categorized_EN.txt	FLOOR	Building	10	1	6	[0, 0, 0]	n/a	0	1	0	n/a	n/a	0.0	0	0	0	catFR2	2	R1026D
695.964	4.6	1122379	STIM_ON	n/a	n/a	n/a	n/a	-999	0	6	[0, 0, 0]	n/a	1	1	4600	LOTD3	LOTD4	500.0	50	230	300	catFR2	2	R1026D
696.168	1.6	1122706	WORD	n/a	wordpools/wordpool_categorized_EN.txt	ROACH	Insects	11	1	6	[0, 0, 0]	n/a	1	1	4600	LOTD3	LOTD4	500.0	50	230	300	catFR2	2	R1026D
698.601	1.6	1126598	WORD	n/a	wordpools/wordpool_categorized_EN.txt	LADYBUG	Insects	12	1	6	[0, 0, 0]	n/a	1	1	4600	LOTD3	LOTD4	500.0	50	230	300	catFR2	2	R1026D
700.219	0.001	1129187	DISTRACT_START	n/a	n/a	n/a	n/a	-999	0	6	[0, 0, 0]	n/a	0	1	0	n/a	n/a	0.0	0	0	0	catFR2	2	R1026D
700.22	0.016	1129188	START	n/a	n/a	n/a	n/a	-999	0	6	[-999, -999, -999]	n/a	0	1	0	n/a	n/a	0.0	0	0	0	catFR2	2	R1026D
700.236	6.833	1129214	PROB	6.809	n/a	n/a	n/a	-999	0	6	[9, 6, 2]	17	0	1	0	n/a	n/a	0.0	0	0	0	catFR2	2	R1026D
707.069	2.984	1140146	PROB	2.96	n/a	n/a	n/a	-999	0	6	[2, 9, 6]	17	0	1	0	n/a	n/a	0.0	0	0	0	catFR2	2	R1026D
710.053	3.385	1144921	PROB	3.361	n/a	n/a	n/a	-999	0	6	[2, 5, 7]	14	0	1	0	n/a	n/a	0.0	0	0	0	catFR2	2	R1026D
713.438	5.034	1150336	PROB	5.0	n/a	n/a	n/a	-999	0	6	[7, 8, 9]	24	0	1	0	n/a	n/a	0.0	0	0	0	catFR2	2	R1026D
718.472	3.157	1158390	PROB	3.157	n/a	n/a	n/a	-999	0	6	[9, 2, 3]	14	0	1	0	n/a	n/a	0.0	0	0	0	catFR2	2	R1026D
721.629	0.009	1163441	STOP	n/a	n/a	n/a	n/a	-999	0	6	[-999, -999, -999]	n/a	0	1	0	n/a	n/a	0.0	0	0	0	catFR2	2	R1026D
721.638	1.201	1163456	DISTRACT_END	n/a	n/a	n/a	n/a	-999	0	6	[0, 0, 0]	n/a	0	1	0	n/a	n/a	0.0	0	0	0	catFR2	2	R1026D
722.839	4.0	1165377	REC_START	n/a	n/a	n/a	n/a	-999	0	6	[0, 0, 0]	n/a	0	1	0	n/a	n/a	0.0	0	0	0	catFR2	2	R1026D
726.839	1.236	1171777	REC_WORD	4.0	n/a	ROOM	Building	9	1	6	[0, 0, 0]	n/a	0	1	0	n/a	n/a	0.0	0	0	0	catFR2	2	R1026D
728.075	3.752	1173754	REC_WORD	5.236	n/a	FLOOR	Building	10	1	6	[0, 0, 0]	n/a	0	1	0	n/a	n/a	0.0	0	0	0	catFR2	2	R1026D
731.827	1.89	1179757	REC_WORD	8.988	n/a	ROOSTER	FarmAnimals	3	1	6	[0, 0, 0]	n/a	0	1	0	n/a	n/a	0.0	0	0	0	catFR2	2	R1026D
733.717	5.619	1182781	REC_WORD	10.878	n/a	GOAT	FarmAnimals	4	1	6	[0, 0, 0]	n/a	0	1	0	n/a	n/a	0.0	0	0	0	catFR2	2	R1026D
739.336	1.306	1191771	REC_WORD	16.497	n/a	ROACH	Insects	11	1	6	[0, 0, 0]	n/a	0	1	0	n/a	n/a	0.0	0	0	0	catFR2	2	R1026D
740.642	1.901	1193860	REC_WORD	17.803	n/a	LADYBUG	Insects	12	1	6	[0, 0, 0]	n/a	0	1	0	n/a	n/a	0.0	0	0	0	catFR2	2	R1026D
742.543	10.308	1196902	REC_WORD	19.704	n/a	MOSQUITO	Insects	5	1	6	[0, 0, 0]	n/a	0	1	0	n/a	n/a	0.0	0	0	0	catFR2	2	R1026D
752.851	4.161	1213394	REC_END	n/a	n/a	n/a	n/a	-999	0	6	[0, 0, 0]	n/a	0	1	0	n/a	n/a	0.0	0	0	0	catFR2	2	R1026D
757.012	0.0	1220051	TRIAL	n/a	n/a	n/a	n/a	-999	0	7	[0, 0, 0]	n/a	0	1	0	n/a	n/a	0.0	0	0	0	catFR2	2	R1026D
757.012	10.0	1220051	COUNTDOWN_START	n/a	n/a	n/a	n/a	-999	0	7	[0, 0, 0]	n/a	0	1	0	n/a	n/a	0.0	0	0	0	catFR2	2	R1026D
767.44	0.008	1236735	COUNTDOWN_END	n/a	n/a	n/a	n/a	-999	0	7	[0, 0, 0]	n/a	0	1	0	n/a	n/a	0.0	0	0	0	catFR2	2	R1026D
767.448	1.6	1236748	ORIENT	n/a	n/a	n/a	n/a	-999	0	7	[0, 0, 0]	n/a	0	1	0	n/a	n/a	0.0	0	0	0	catFR2	2	R1026D
771.332	1.6	1242962	WORD	n/a	wordpools/wordpool_categorized_EN.txt	STEREO	Electronics	1	0	7	[0, 0, 0]	n/a	0	1	0	n/a	n/a	0.0	0	0	0	catFR2	2	R1026D
773.931	1.6	1247120	WORD	n/a	wordpools/wordpool_categorized_EN.txt	PHONE	Electronics	2	0	7	[0, 0, 0]	n/a	0	1	0	n/a	n/a	0.0	0	0	0	catFR2	2	R1026D
776.228	4.6	1250795	STIM_ON	n/a	n/a	n/a	n/a	-999	0	7	[0, 0, 0]	n/a	1	1	4600	LOTD3	LOTD4	500.0	50	230	300	catFR2	2	R1026D
776.433	1.6	1251123	WORD	n/a	wordpools/wordpool_categorized_EN.txt	TRUMPET	Instruments	3	0	7	[0, 0, 0]	n/a	1	1	4600	LOTD3	LOTD4	500.0	50	230	300	catFR2	2	R1026D
778.932	1.6	1255121	WORD	n/a	wordpools/wordpool_categorized_EN.txt	TUBA	Instruments	4	0	7	[0, 0, 0]	n/a	1	1	4600	LOTD3	LOTD4	500.0	50	230	300	catFR2	2	R1026D
781.384	1.6	1259044	WORD	n/a	wordpools/wordpool_categorized_EN.txt	DOLLHOUSE	Toys	5	0	7	[0, 0, 0]	n/a	0	1	0	n/a	n/a	0.0	0	0	0	catFR2	2	R1026D
783.967	1.6	1263177	WORD	n/a	wordpools/wordpool_categorized_EN.txt	SLINKY	Toys	6	0	7	[0, 0, 0]	n/a	0	1	0	n/a	n/a	0.0	0	0	0	catFR2	2	R1026D
786.281	4.6	1266879	STIM_ON	n/a	n/a	n/a	n/a	-999	0	7	[0, 0, 0]	n/a	1	1	4600	LOTD3	LOTD4	500.0	50	230	300	catFR2	2	R1026D
786.485	1.6	1267206	WORD	n/a	wordpools/wordpool_categorized_EN.txt	CELLO	Instruments	7	0	7	[0, 0, 0]	n/a	1	1	4600	LOTD3	LOTD4	500.0	50	230	300	catFR2	2	R1026D
788.868	1.6	1271018	WORD	n/a	wordpools/wordpool_categorized_EN.txt	DRUM	Instruments	8	0	7	[0, 0, 0]	n/a	1	1	4600	LOTD3	LOTD4	500.0	50	230	300	catFR2	2	R1026D
791.402	1.6	1275072	WORD	n/a	wordpools/wordpool_categorized_EN.txt	MICROWAVE	Electronics	9	0	7	[0, 0, 0]	n/a	0	1	0	n/a	n/a	0.0	0	0	0	catFR2	2	R1026D
793.902	1.6	1279072	WORD	n/a	wordpools/wordpool_categorized_EN.txt	RADIO	Electronics	10	0	7	[0, 0, 0]	n/a	0	1	0	n/a	n/a	0.0	0	0	0	catFR2	2	R1026D
796.138	4.6	1282650	STIM_ON	n/a	n/a	n/a	n/a	-999	0	7	[0, 0, 0]	n/a	1	1	4600	LOTD3	LOTD4	500.0	50	230	300	catFR2	2	R1026D
796.353	1.6	1282994	WORD	n/a	wordpools/wordpool_categorized_EN.txt	FOOTBALL	Toys	11	0	7	[0, 0, 0]	n/a	1	1	4600	LOTD3	LOTD4	500.0	50	230	300	catFR2	2	R1026D
798.903	1.6	1287073	WORD	n/a	wordpools/wordpool_categorized_EN.txt	FRISBEE	Toys	12	0	7	[0, 0, 0]	n/a	1	1	4600	LOTD3	LOTD4	500.0	50	230	300	catFR2	2	R1026D
800.521	0.001	1289662	DISTRACT_START	n/a	n/a	n/a	n/a	-999	0	7	[0, 0, 0]	n/a	0	1	0	n/a	n/a	0.0	0	0	0	catFR2	2	R1026D
800.522	0.014	1289664	START	n/a	n/a	n/a	n/a	-999	0	7	[-999, -999, -999]	n/a	0	1	0	n/a	n/a	0.0	0	0	0	catFR2	2	R1026D
800.536	4.284	1289686	PROB	4.253	n/a	n/a	n/a	-999	0	7	[7, 5, 3]	15	0	1	0	n/a	n/a	0.0	0	0	0	catFR2	2	R1026D
804.82	5.319	1296540	PROB	5.289	n/a	n/a	n/a	-999	0	7	[8, 7, 3]	18	0	1	0	n/a	n/a	0.0	0	0	0	catFR2	2	R1026D
810.139	4.85	1305050	PROB	4.826	n/a	n/a	n/a	-999	0	7	[8, 7, 8]	23	0	1	0	n/a	n/a	0.0	0	0	0	catFR2	2	R1026D
814.989	3.252	1312810	PROB	3.217	n/a	n/a	n/a	-999	0	7	[7, 7, 4]	18	0	1	0	n/a	n/a	0.0	0	0	0	catFR2	2	R1026D
818.241	4.796	1318013	PROB	4.796	n/a	n/a	n/a	-999	0	7	[4, 1, 6]	11	0	1	0	n/a	n/a	0.0	0	0	0	catFR2	2	R1026D
823.037	0.003	1325686	STOP	n/a	n/a	n/a	n/a	-999	0	7	[-999, -999, -999]	n/a	0	1	0	n/a	n/a	0.0	0	0	0	catFR2	2	R1026D
823.04	1.153	1325691	DISTRACT_END	n/a	n/a	n/a	n/a	-999	0	7	[0, 0, 0]	n/a	0	1	0	n/a	n/a	0.0	0	0	0	catFR2	2	R1026D
824.193	30.0	1327535	REC_START	n/a	n/a	n/a	n/a	-999	0	7	[0, 0, 0]	n/a	0	1	0	n/a	n/a	0.0	0	0	0	catFR2	2	R1026D
854.193	0.013	1375533	REC_WORD_VV	30.0	n/a	<>	n/a	-999	0	7	[0, 0, 0]	n/a	0	1	0	n/a	n/a	0.0	0	0	0	catFR2	2	R1026D
854.206	753.946	1375554	REC_END	n/a	n/a	n/a	n/a	-999	0	7	[0, 0, 0]	n/a	0	1	0	n/a	n/a	0.0	0	0	0	catFR2	2	R1026D
1608.152	0.0	2581807	TRIAL	n/a	n/a	n/a	n/a	-999	0	8	[0, 0, 0]	n/a	0	0	0	n/a	n/a	0.0	0	0	0	catFR2	2	R1026D
1608.152	10.0	2581807	COUNTDOWN_START	n/a	n/a	n/a	n/a	-999	0	8	[0, 0, 0]	n/a	0	0	0	n/a	n/a	0.0	0	0	0	catFR2	2	R1026D
1618.58	0.006	2598491	COUNTDOWN_END	n/a	n/a	n/a	n/a	-999	0	8	[0, 0, 0]	n/a	0	0	0	n/a	n/a	0.0	0	0	0	catFR2	2	R1026D
1618.586	1.6	2598501	ORIENT	n/a	n/a	n/a	n/a	-999	0	8	[0, 0, 0]	n/a	0	0	0	n/a	n/a	0.0	0	0	0	catFR2	2	R1026D
1622.388	1.6	2604584	WORD	n/a	wordpools/wordpool_categorized_EN.txt	PASTRY	Desserts	1	1	8	[0, 0, 0]	n/a	0	0	0	n/a	n/a	0.0	0	0	0	catFR2	2	R1026D
1624.804	1.6	2608449	WORD	n/a	wordpools/wordpool_categorized_EN.txt	BROWNIES	Desserts	2	1	8	[0, 0, 0]	n/a	0	0	0	n/a	n/a	0.0	0	0	0	catFR2	2	R1026D
1627.372	1.6	2612558	WORD	n/a	wordpools/wordpool_categorized_EN.txt	PAPER	OfficeSupplies	3	0	8	[0, 0, 0]	n/a	0	0	0	n/a	n/a	0.0	0	0	0	catFR2	2	R1026D
1629.772	1.6	2616397	WORD	n/a	wordpools/wordpool_categorized_EN.txt	RULER	OfficeSupplies	4	0	8	[0, 0, 0]	n/a	0	0	0	n/a	n/a	0.0	0	0	0	catFR2	2	R1026D
1632.29	1.6	2620426	WORD	n/a	wordpools/wordpool_categorized_EN.txt	SHOVEL	Tools	5	0	8	[0, 0, 0]	n/a	0	0	0	n/a	n/a	0.0	0	0	0	catFR2	2	R1026D
1634.773	1.6	2624399	WORD	n/a	wordpools/wordpool_categorized_EN.txt	CROWBAR	Tools	6	0	8	[0, 0, 0]	n/a	0	0	0	n/a	n/a	0.0	0	0	0	catFR2	2	R1026D
1637.257	1.6	2628373	WORD	n/a	wordpools/wordpool_categorized_EN.txt	CAKE	Desserts	7	1	8	[0, 0, 0]	n/a	0	0	0	n/a	n/a	0.0	0	0	0	catFR2	2	R1026D
1639.773	1.6	2632398	WORD	n/a	wordpools/wordpool_categorized_EN.txt	PUDDING	Desserts	8	1	8	[0, 0, 0]	n/a	0	0	0	n/a	n/a	0.0	0	0	0	catFR2	2	R1026D
1642.342	1.6	2636508	WORD	n/a	wordpools/wordpool_categorized_EN.txt	RATCHET	Tools	9	1	8	[0, 0, 0]	n/a	0	0	0	n/a	n/a	0.0	0	0	0	catFR2	2	R1026D
1644.891	1.6	2640587	WORD	n/a	wordpools/wordpool_categorized_EN.txt	LEVEL	Tools	10	1	8	[0, 0, 0]	n/a	0	0	0	n/a	n/a	0.0	0	0	0	catFR2	2	R1026D
1647.276	1.6	2644402	WORD	n/a	wordpools/wordpool_categorized_EN.txt	ERASER	OfficeSupplies	11	0	8	[0, 0, 0]	n/a	0	0	0	n/a	n/a	0.0	0	0	0	catFR2	2	R1026D
1649.709	1.6	2648295	WORD	n/a	wordpools/wordpool_categorized_EN.txt	GLUE	OfficeSupplies	12	0	8	[0, 0, 0]	n/a	0	0	0	n/a	n/a	0.0	0	0	0	catFR2	2	R1026D
1651.327	0.001	2650884	DISTRACT_START	n/a	n/a	n/a	n/a	-999	0	8	[0, 0, 0]	n/a	0	0	0	n/a	n/a	0.0	0	0	0	catFR2	2	R1026D
1651.328	0.015	2650885	START	n/a	n/a	n/a	n/a	-999	0	8	[-999, -999, -999]	n/a	0	0	0	n/a	n/a	0.0	0	0	0	catFR2	2	R1026D
1651.343	3.383	2650909	PROB	3.358	n/a	n/a	n/a	-999	0	8	[8, 4, 1]	13	0	0	0	n/a	n/a	0.0	0	0	0	catFR2	2	R1026D
1654.726	8.152	2656322	PROB	8.119	n/a	n/a	n/a	-999	0	8	[9, 7, 9]	25	0	0	0	n/a	n/a	0.0	0	0	0	catFR2	2	R1026D
1662.878	5.717	2669364	PROB	5.687	n/a	n/a	n/a	-999	0	8	[1, 8, 4]	13	0	0	0	n/a	n/a	0.0	0	0	0	catFR2	2	R1026D
1668.595	5.082	2678511	PROB	5.082	n/a	n/a	n/a	-999	0	8	[3, 5, 2]	10	0	0	0	n/a	n/a	0.0	0	0	0	catFR2	2	R1026D
1673.677	0.003	2686642	STOP	n/a	n/a	n/a	n/a	-999	0	8	[-999, -999, -999]	n/a	0	0	0	n/a	n/a	0.0	0	0	0	catFR2	2	R1026D
1673.68	1.217	2686647	DISTRACT_END	n/a	n/a	n/a	n/a	-999	0	8	[0, 0, 0]	n/a	0	0	0	n/a	n/a	0.0	0	0	0	catFR2	2	R1026D
1674.897	2.186	2688594	REC_START	n/a	n/a	n/a	n/a	-999	0	8	[0, 0, 0]	n/a	0	0	0	n/a	n/a	0.0	0	0	0	catFR2	2	R1026D
1677.083	1.238	2692091	REC_WORD	2.186	n/a	PASTRY	Desserts	1	1	8	[0, 0, 0]	n/a	0	0	0	n/a	n/a	0.0	0	0	0	catFR2	2	R1026D
1678.321	2.272	2694072	REC_WORD	3.424	n/a	BROWNIES	Desserts	2	1	8	[0, 0, 0]	n/a	0	0	0	n/a	n/a	0.0	0	0	0	catFR2	2	R1026D
1680.593	1.282	2697707	REC_WORD	5.696	n/a	CAKE	Desserts	7	1	8	[0, 0, 0]	n/a	0	0	0	n/a	n/a	0.0	0	0	0	catFR2	2	R1026D
1681.875	2.012	2699758	REC_WORD	6.978	n/a	PUDDING	Desserts	8	1	8	[0, 0, 0]	n/a	0	0	0	n/a	n/a	0.0	0	0	0	catFR2	2	R1026D
1683.887	1.873	2702977	REC_WORD	8.99	n/a	RATCHET	Tools	9	1	8	[0, 0, 0]	n/a	0	0	0	n/a	n/a	0.0	0	0	0	catFR2	2	R1026D
1685.76	19.155	2705974	REC_WORD	10.863	n/a	LEVEL	Tools	10	1	8	[0, 0, 0]	n/a	0	0	0	n/a	n/a	0.0	0	0	0	catFR2	2	R1026D
1704.915	2.971	2736620	REC_END	n/a	n/a	n/a	n/a	-999	0	8	[0, 0, 0]	n/a	0	0	0	n/a	n/a	0.0	0	0	0	catFR2	2	R1026D
1707.886	0.0	2741374	TRIAL	n/a	n/a	n/a	n/a	-999	0	9	[0, 0, 0]	n/a	0	1	0	n/a	n/a	0.0	0	0	0	catFR2	2	R1026D
1707.886	10.0	2741374	COUNTDOWN_START	n/a	n/a	n/a	n/a	-999	0	9	[0, 0, 0]	n/a	0	1	0	n/a	n/a	0.0	0	0	0	catFR2	2	R1026D
1718.314	0.008	2758058	COUNTDOWN_END	n/a	n/a	n/a	n/a	-999	0	9	[0, 0, 0]	n/a	0	1	0	n/a	n/a	0.0	0	0	0	catFR2	2	R1026D
1718.322	1.6	2758070	ORIENT	n/a	n/a	n/a	n/a	-999	0	9	[0, 0, 0]	n/a	0	1	0	n/a	n/a	0.0	0	0	0	catFR2	2	R1026D
1721.855	1.6	2763723	WORD	n/a	wordpools/wordpool_categorized_EN.txt	TONGS	KitchenTools	1	0	9	[0, 0, 0]	n/a	0	1	0	n/a	n/a	0.0	0	0	0	catFR2	2	R1026D
1724.423	1.6	2767832	WORD	n/a	wordpools/wordpool_categorized_EN.txt	KNIFE	KitchenTools	2	0	9	[0, 0, 0]	n/a	0	1	0	n/a	n/a	0.0	0	0	0	catFR2	2	R1026D
1726.627	4.6	2771358	STIM_ON	n/a	n/a	n/a	n/a	-999	0	9	[0, 0, 0]	n/a	1	1	4600	LOTD3	LOTD4	500.0	50	230	300	catFR2	2	R1026D
1726.839	1.6	2771697	WORD	n/a	wordpools/wordpool_categorized_EN.txt	MARBLES	Toys	3	1	9	[0, 0, 0]	n/a	1	1	4600	LOTD3	LOTD4	500.0	50	230	300	catFR2	2	R1026D
1729.408	1.6	2775807	WORD	n/a	wordpools/wordpool_categorized_EN.txt	DOLL	Toys	4	1	9	[0, 0, 0]	n/a	1	1	4600	LOTD3	LOTD4	500.0	50	230	300	catFR2	2	R1026D
1731.857	1.6	2779725	WORD	n/a	wordpools/wordpool_categorized_EN.txt	BLENDER	Appliances	5	1	9	[0, 0, 0]	n/a	0	1	0	n/a	n/a	0.0	0	0	0	catFR2	2	R1026D
1734.258	1.6	2783567	WORD	n/a	wordpools/wordpool_categorized_EN.txt	STOVE	Appliances	6	0	9	[0, 0, 0]	n/a	0	1	0	n/a	n/a	0.0	0	0	0	catFR2	2	R1026D
1736.469	4.6	2787104	STIM_ON	n/a	n/a	n/a	n/a	-999	0	9	[0, 0, 0]	n/a	1	1	4600	LOTD3	LOTD4	500.0	50	230	300	catFR2	2	R1026D
1736.675	1.6	2787434	WORD	n/a	wordpools/wordpool_categorized_EN.txt	WHISK	KitchenTools	7	1	9	[0, 0, 0]	n/a	1	1	4600	LOTD3	LOTD4	500.0	50	230	300	catFR2	2	R1026D
1739.143	1.6	2791382	WORD	n/a	wordpools/wordpool_categorized_EN.txt	COLANDER	KitchenTools	8	0	9	[0, 0, 0]	n/a	1	1	4600	LOTD3	LOTD4	500.0	50	230	300	catFR2	2	R1026D
1741.759	1.6	2795568	WORD	n/a	wordpools/wordpool_categorized_EN.txt	WASHER	Appliances	9	0	9	[0, 0, 0]	n/a	0	1	0	n/a	n/a	0.0	0	0	0	catFR2	2	R1026D
1744.26	1.6	2799569	WORD	n/a	wordpools/wordpool_categorized_EN.txt	DRYER	Appliances	10	1	9	[0, 0, 0]	n/a	0	1	0	n/a	n/a	0.0	0	0	0	catFR2	2	R1026D
1746.664	4.6	2803415	STIM_ON	n/a	n/a	n/a	n/a	-999	0	9	[0, 0, 0]	n/a	1	1	4600	LOTD3	LOTD4	500.0	50	230	300	catFR2	2	R1026D
1746.876	1.6	2803755	WORD	n/a	wordpools/wordpool_categorized_EN.txt	BALL	Toys	11	1	9	[0, 0, 0]	n/a	1	1	4600	LOTD3	LOTD4	500.0	50	230	300	catFR2	2	R1026D
1749.311	1.6	2807650	WORD	n/a	wordpools/wordpool_categorized_EN.txt	BASKETBALL	Toys	12	0	9	[0, 0, 0]	n/a	1	1	4600	LOTD3	LOTD4	500.0	50	230	300	catFR2	2	R1026D
1750.927	0.001	2810236	DISTRACT_START	n/a	n/a	n/a	n/a	-999	0	9	[0, 0, 0]	n/a	0	1	0	n/a	n/a	0.0	0	0	0	catFR2	2	R1026D
1750.928	0.016	2810237	START	n/a	n/a	n/a	n/a	-999	0	9	[-999, -999, -999]	n/a	0	1	0	n/a	n/a	0.0	0	0	0	catFR2	2	R1026D
1750.944	5.101	2810263	PROB	5.069	n/a	n/a	n/a	-999	0	9	[8, 1, 9]	18	0	1	0	n/a	n/a	0.0	0	0	0	catFR2	2	R1026D
1756.045	2.667	2818424	PROB	2.632	n/a	n/a	n/a	-999	0	9	[5, 5, 5]	15	0	1	0	n/a	n/a	0.0	0	0	0	catFR2	2	R1026D
1758.712	2.85	2822691	PROB	2.821	n/a	n/a	n/a	-999	0	9	[9, 1, 7]	17	0	1	0	n/a	n/a	0.0	0	0	0	catFR2	2	R1026D
1761.562	4.068	2827251	PROB	4.035	n/a	n/a	n/a	-999	0	9	[8, 1, 5]	14	0	1	0	n/a	n/a	0.0	0	0	0	catFR2	2	R1026D
1765.63	3.15	2833759	PROB	3.119	n/a	n/a	n/a	-999	0	9	[8, 8, 2]	18	0	1	0	n/a	n/a	0.0	0	0	0	catFR2	2	R1026D
1768.78	2.913	2838799	PROB	2.913	n/a	n/a	n/a	-999	0	9	[1, 2, 6]	9	0	1	0	n/a	n/a	0.0	0	0	0	catFR2	2	R1026D
1771.693	0.004	2843460	STOP	n/a	n/a	n/a	n/a	-999	0	9	[-999, -999, -999]	n/a	0	1	0	n/a	n/a	0.0	0	0	0	catFR2	2	R1026D
1771.697	1.135	2843466	DISTRACT_END	n/a	n/a	n/a	n/a	-999	0	9	[0, 0, 0]	n/a	0	1	0	n/a	n/a	0.0	0	0	0	catFR2	2	R1026D
1772.832	10.868	2845282	REC_START	n/a	n/a	n/a	n/a	-999	0	9	[0, 0, 0]	n/a	0	1	0	n/a	n/a	0.0	0	0	0	catFR2	2	R1026D
1783.7	1.32	2862670	REC_WORD	10.868	n/a	BLENDER	Appliances	5	1	9	[0, 0, 0]	n/a	0	1	0	n/a	n/a	0.0	0	0	0	catFR2	2	R1026D
1785.02	5.176	2864782	REC_WORD	12.188	n/a	WHISK	KitchenTools	7	1	9	[0, 0, 0]	n/a	0	1	0	n/a	n/a	0.0	0	0	0	catFR2	2	R1026D
1790.196	0.926	2873063	REC_WORD	17.364	n/a	DRYER	Appliances	10	1	9	[0, 0, 0]	n/a	0	1	0	n/a	n/a	0.0	0	0	0	catFR2	2	R1026D
1791.122	2.126	2874545	REC_WORD	18.29	n/a	BALL	Toys	11	1	9	[0, 0, 0]	n/a	0	1	0	n/a	n/a	0.0	0	0	0	catFR2	2	R1026D
1793.248	0.732	2877946	REC_WORD	20.416	n/a	MARBLES	Toys	3	1	9	[0, 0, 0]	n/a	0	1	0	n/a	n/a	0.0	0	0	0	catFR2	2	R1026D
1793.98	3.284	2879117	REC_WORD_VV	21.148	n/a	<>	n/a	-999	0	9	[0, 0, 0]	n/a	0	1	0	n/a	n/a	0.0	0	0	0	catFR2	2	R1026D
1797.264	5.581	2884371	REC_WORD	24.432	n/a	DOLL	Toys	4	1	9	[0, 0, 0]	n/a	0	1	0	n/a	n/a	0.0	0	0	0	catFR2	2	R1026D
1802.845	2.593	2893300	REC_END	n/a	n/a	n/a	n/a	-999	0	9	[0, 0, 0]	n/a	0	1	0	n/a	n/a	0.0	0	0	0	catFR2	2	R1026D
1805.438	10.0	2897449	COUNTDOWN_START	n/a	n/a	n/a	n/a	-999	0	10	[0, 0, 0]	n/a	0	1	0	n/a	n/a	0.0	0	0	0	catFR2	2	R1026D
1805.439	10.427	2897451	TRIAL	n/a	n/a	n/a	n/a	-999	0	10	[0, 0, 0]	n/a	0	1	0	n/a	n/a	0.0	0	0	0	catFR2	2	R1026D
1815.866	0.006	2914133	COUNTDOWN_END	n/a	n/a	n/a	n/a	-999	0	10	[0, 0, 0]	n/a	0	1	0	n/a	n/a	0.0	0	0	0	catFR2	2	R1026D
1815.872	1.6	2914143	ORIENT	n/a	n/a	n/a	n/a	-999	0	10	[0, 0, 0]	n/a	0	1	0	n/a	n/a	0.0	0	0	0	catFR2	2	R1026D
1819.206	4.6	2919477	STIM_ON	n/a	n/a	n/a	n/a	-999	0	10	[0, 0, 0]	n/a	1	1	4600	LOTD3	LOTD4	500.0	50	230	300	catFR2	2	R1026D
1819.424	1.6	2919826	WORD	n/a	wordpools/wordpool_categorized_EN.txt	PANTS	Clothing	1	1	10	[0, 0, 0]	n/a	1	1	4600	LOTD3	LOTD4	500.0	50	230	300	catFR2	2	R1026D
1821.957	1.6	2923878	WORD	n/a	wordpools/wordpool_categorized_EN.txt	DRESS	Clothing	2	1	10	[0, 0, 0]	n/a	1	1	4600	LOTD3	LOTD4	500.0	50	230	300	catFR2	2	R1026D
1824.442	1.6	2927854	WORD	n/a	wordpools/wordpool_categorized_EN.txt	SODA	Beverages	3	0	10	[0, 0, 0]	n/a	0	1	0	n/a	n/a	0.0	0	0	0	catFR2	2	R1026D
1826.841	1.6	2931692	WORD	n/a	wordpools/wordpool_categorized_EN.txt	TEA	Beverages	4	0	10	[0, 0, 0]	n/a	0	1	0	n/a	n/a	0.0	0	0	0	catFR2	2	R1026D
1829.022	4.6	2935182	STIM_ON	n/a	n/a	n/a	n/a	-999	0	10	[0, 0, 0]	n/a	1	1	4600	LOTD3	LOTD4	500.0	50	230	300	catFR2	2	R1026D
1829.226	1.6	2935508	WORD	n/a	wordpools/wordpool_categorized_EN.txt	WALL	Building	5	0	10	[0, 0, 0]	n/a	1	1	4600	LOTD3	LOTD4	500.0	50	230	300	catFR2	2	R1026D
1831.825	1.6	2939666	WORD	n/a	wordpools/wordpool_categorized_EN.txt	STAIRS	Building	6	0	10	[0, 0, 0]	n/a	1	1	4600	LOTD3	LOTD4	500.0	50	230	300	catFR2	2	R1026D
1834.243	1.6	2943535	WORD	n/a	wordpools/wordpool_categorized_EN.txt	CIDER	Beverages	7	1	10	[0, 0, 0]	n/a	0	1	0	n/a	n/a	0.0	0	0	0	catFR2	2	R1026D
1836.793	1.6	2947615	WORD	n/a	wordpools/wordpool_categorized_EN.txt	LEMONADE	Beverages	8	1	10	[0, 0, 0]	n/a	0	1	0	n/a	n/a	0.0	0	0	0	catFR2	2	R1026D
1839.182	4.6	2951437	STIM_ON	n/a	n/a	n/a	n/a	-999	0	10	[0, 0, 0]	n/a	1	1	4600	LOTD3	LOTD4	500.0	50	230	300	catFR2	2	R1026D
1839.394	1.6	2951776	WORD	n/a	wordpools/wordpool_categorized_EN.txt	COAT	Clothing	9	1	10	[0, 0, 0]	n/a	1	1	4600	LOTD3	LOTD4	500.0	50	230	300	catFR2	2	R1026D
1841.877	1.6	2955749	WORD	n/a	wordpools/wordpool_categorized_EN.txt	SKIRT	Clothing	10	0	10	[0, 0, 0]	n/a	1	1	4600	LOTD3	LOTD4	500.0	50	230	300	catFR2	2	R1026D
1844.312	1.6	2959644	WORD	n/a	wordpools/wordpool_categorized_EN.txt	ATTIC	Building	11	0	10	[0, 0, 0]	n/a	0	1	0	n/a	n/a	0.0	0	0	0	catFR2	2	R1026D
1846.912	1.6	2963804	WORD	n/a	wordpools/wordpool_categorized_EN.txt	BATHROOM	Building	12	0	10	[0, 0, 0]	n/a	0	1	0	n/a	n/a	0.0	0	0	0	catFR2	2	R1026D
1848.528	0.001	2966390	DISTRACT_START	n/a	n/a	n/a	n/a	-999	0	10	[0, 0, 0]	n/a	0	1	0	n/a	n/a	0.0	0	0	0	catFR2	2	R1026D
1848.529	0.016	2966391	START	n/a	n/a	n/a	n/a	-999	0	10	[-999, -999, -999]	n/a	0	1	0	n/a	n/a	0.0	0	0	0	catFR2	2	R1026D
1848.545	7.569	2966417	PROB	7.54	n/a	n/a	n/a	-999	0	10	[9, 7, 6]	22	0	1	0	n/a	n/a	0.0	0	0	0	catFR2	2	R1026D
1856.114	2.95	2978527	PROB	2.915	n/a	n/a	n/a	-999	0	10	[2, 8, 8]	18	0	1	0	n/a	n/a	0.0	0	0	0	catFR2	2	R1026D
1859.064	3.834	2983246	PROB	3.805	n/a	n/a	n/a	-999	0	10	[6, 1, 8]	15	0	1	0	n/a	n/a	0.0	0	0	0	catFR2	2	R1026D
1862.898	4.15	2989380	PROB	4.115	n/a	n/a	n/a	-999	0	10	[5, 7, 6]	18	0	1	0	n/a	n/a	0.0	0	0	0	catFR2	2	R1026D
1867.048	3.206	2996020	PROB	3.206	n/a	n/a	n/a	-999	0	10	[3, 3, 6]	15	0	1	0	n/a	n/a	0.0	0	0	0	catFR2	2	R1026D
1870.254	0.013	3001149	STOP	n/a	n/a	n/a	n/a	-999	0	10	[-999, -999, -999]	n/a	0	1	0	n/a	n/a	0.0	0	0	0	catFR2	2	R1026D
1870.267	1.184	3001170	DISTRACT_END	n/a	n/a	n/a	n/a	-999	0	10	[0, 0, 0]	n/a	0	1	0	n/a	n/a	0.0	0	0	0	catFR2	2	R1026D
1871.451	3.083	3003065	REC_START	n/a	n/a	n/a	n/a	-999	0	10	[0, 0, 0]	n/a	0	1	0	n/a	n/a	0.0	0	0	0	catFR2	2	R1026D
1874.534	1.48	3007997	REC_WORD	3.083	n/a	CIDER	Beverages	7	1	10	[0, 0, 0]	n/a	0	1	0	n/a	n/a	0.0	0	0	0	catFR2	2	R1026D
1876.014	3.339	3010365	REC_WORD	4.563	n/a	LEMONADE	Beverages	8	1	10	[0, 0, 0]	n/a	0	1	0	n/a	n/a	0.0	0	0	0	catFR2	2	R1026D
1879.353	0.881	3015707	REC_WORD	7.902	n/a	DRESS	Clothing	2	1	10	[0, 0, 0]	n/a	0	1	0	n/a	n/a	0.0	0	0	0	catFR2	2	R1026D
1880.234	0.599	3017117	REC_WORD	8.783	n/a	PANTS	Clothing	1	1	10	[0, 0, 0]	n/a	0	1	0	n/a	n/a	0.0	0	0	0	catFR2	2	R1026D
1880.833	1.888	3018075	REC_WORD_VV	9.382	n/a	<>	n/a	-999	0	10	[0, 0, 0]	n/a	0	1	0	n/a	n/a	0.0	0	0	0	catFR2	2	R1026D
1882.721	18.743	3021096	REC_WORD	11.27	n/a	COAT	Clothing	9	1	10	[0, 0, 0]	n/a	0	1	0	n/a	n/a	0.0	0	0	0	catFR2	2	R1026D
1901.464	2.208	3051083	REC_END	n/a	n/a	n/a	n/a	-999	0	10	[0, 0, 0]	n/a	0	1	0	n/a	n/a	0.0	0	0	0	catFR2	2	R1026D
1903.672	0.0	3054616	TRIAL	n/a	n/a	n/a	n/a	-999	0	11	[0, 0, 0]	n/a	0	1	0	n/a	n/a	0.0	0	0	0	catFR2	2	R1026D
1903.672	10.0	3054616	COUNTDOWN_START	n/a	n/a	n/a	n/a	-999	0	11	[0, 0, 0]	n/a	0	1	0	n/a	n/a	0.0	0	0	0	catFR2	2	R1026D
1914.1	0.007	3071300	COUNTDOWN_END	n/a	n/a	n/a	n/a	-999	0	11	[0, 0, 0]	n/a	0	1	0	n/a	n/a	0.0	0	0	0	catFR2	2	R1026D
1914.107	1.6	3071311	ORIENT	n/a	n/a	n/a	n/a	-999	0	11	[0, 0, 0]	n/a	0	1	0	n/a	n/a	0.0	0	0	0	catFR2	2	R1026D
1917.558	1.6	3076832	WORD	n/a	wordpools/wordpool_categorized_EN.txt	DRILL	Tools	1	0	11	[0, 0, 0]	n/a	0	1	0	n/a	n/a	0.0	0	0	0	catFR2	2	R1026D
1919.975	1.6	3080699	WORD	n/a	wordpools/wordpool_categorized_EN.txt	WRENCH	Tools	2	0	11	[0, 0, 0]	n/a	0	1	0	n/a	n/a	0.0	0	0	0	catFR2	2	R1026D
1922.198	4.6	3084256	STIM_ON	n/a	n/a	n/a	n/a	-999	0	11	[0, 0, 0]	n/a	1	1	4600	LOTD3	LOTD4	500.0	50	230	300	catFR2	2	R1026D
1922.41	1.6	3084595	WORD	n/a	wordpools/wordpool_categorized_EN.txt	CELERY	Vegetables	3	0	11	[0, 0, 0]	n/a	1	1	4600	LOTD3	LOTD4	500.0	50	230	300	catFR2	2	R1026D
1924.942	1.6	3088646	WORD	n/a	wordpools/wordpool_categorized_EN.txt	LETTUCE	Vegetables	4	0	11	[0, 0, 0]	n/a	1	1	4600	LOTD3	LOTD4	500.0	50	230	300	catFR2	2	R1026D
1927.56	1.6	3092835	WORD	n/a	wordpools/wordpool_categorized_EN.txt	JEANS	Clothing	5	0	11	[0, 0, 0]	n/a	0	1	0	n/a	n/a	0.0	0	0	0	catFR2	2	R1026D
1930.01	1.6	3096754	WORD	n/a	wordpools/wordpool_categorized_EN.txt	SOCKS	Clothing	6	0	11	[0, 0, 0]	n/a	0	1	0	n/a	n/a	0.0	0	0	0	catFR2	2	R1026D
1932.211	4.6	3100276	STIM_ON	n/a	n/a	n/a	n/a	-999	0	11	[0, 0, 0]	n/a	1	1	4600	LOTD3	LOTD4	500.0	50	230	300	catFR2	2	R1026D
1932.428	1.6	3100623	WORD	n/a	wordpools/wordpool_categorized_EN.txt	PEAS	Vegetables	7	0	11	[0, 0, 0]	n/a	1	1	4600	LOTD3	LOTD4	500.0	50	230	300	catFR2	2	R1026D
1934.894	1.6	3104568	WORD	n/a	wordpools/wordpool_categorized_EN.txt	ONION	Vegetables	8	0	11	[0, 0, 0]	n/a	1	1	4600	LOTD3	LOTD4	500.0	50	230	300	catFR2	2	R1026D
1937.396	1.6	3108571	WORD	n/a	wordpools/wordpool_categorized_EN.txt	AXE	Tools	9	1	11	[0, 0, 0]	n/a	0	1	0	n/a	n/a	0.0	0	0	0	catFR2	2	R1026D
1939.912	1.6	3112597	WORD	n/a	wordpools/wordpool_categorized_EN.txt	HAMMER	Tools	10	1	11	[0, 0, 0]	n/a	0	1	0	n/a	n/a	0.0	0	0	0	catFR2	2	R1026D
1942.117	4.6	3116125	STIM_ON	n/a	n/a	n/a	n/a	-999	0	11	[0, 0, 0]	n/a	1	1	4600	LOTD3	LOTD4	500.0	50	230	300	catFR2	2	R1026D
1942.33	1.6	3116465	WORD	n/a	wordpools/wordpool_categorized_EN.txt	BLOUSE	Clothing	11	1	11	[0, 0, 0]	n/a	1	1	4600	LOTD3	LOTD4	500.0	50	230	300	catFR2	2	R1026D
1944.946	1.6	3120651	WORD	n/a	wordpools/wordpool_categorized_EN.txt	UNDERWEAR	Clothing	12	0	11	[0, 0, 0]	n/a	1	1	4600	LOTD3	LOTD4	500.0	50	230	300	catFR2	2	R1026D
1946.563	0.001	3123238	DISTRACT_START	n/a	n/a	n/a	n/a	-999	0	11	[0, 0, 0]	n/a	0	1	0	n/a	n/a	0.0	0	0	0	catFR2	2	R1026D
1946.564	0.016	3123239	START	n/a	n/a	n/a	n/a	-999	0	11	[-999, -999, -999]	n/a	0	1	0	n/a	n/a	0.0	0	0	0	catFR2	2	R1026D
1946.58	5.351	3123265	PROB	5.329	n/a	n/a	n/a	-999	0	11	[8, 7, 2]	17	0	1	0	n/a	n/a	0.0	0	0	0	catFR2	2	R1026D
1951.931	2.934	3131826	PROB	2.898	n/a	n/a	n/a	-999	0	11	[6, 4, 6]	16	0	1	0	n/a	n/a	0.0	0	0	0	catFR2	2	R1026D
1954.865	7.385	3136520	PROB	7.365	n/a	n/a	n/a	-999	0	11	[6, 2, 6]	14	0	1	0	n/a	n/a	0.0	0	0	0	catFR2	2	R1026D
1962.25	3.868	3148336	PROB	3.843	n/a	n/a	n/a	-999	0	11	[6, 3, 7]	16	0	1	0	n/a	n/a	0.0	0	0	0	catFR2	2	R1026D
1966.118	3.336	3154524	PROB	3.336	n/a	n/a	n/a	-999	0	11	[2, 2, 5]	9	0	1	0	n/a	n/a	0.0	0	0	0	catFR2	2	R1026D
1969.454	0.014	3159862	STOP	n/a	n/a	n/a	n/a	-999	0	11	[-999, -999, -999]	n/a	0	1	0	n/a	n/a	0.0	0	0	0	catFR2	2	R1026D
1969.468	1.051	3159884	DISTRACT_END	n/a	n/a	n/a	n/a	-999	0	11	[0, 0, 0]	n/a	0	1	0	n/a	n/a	0.0	0	0	0	catFR2	2	R1026D
1970.519	7.103	3161565	REC_START	n/a	n/a	n/a	n/a	-999	0	11	[0, 0, 0]	n/a	0	1	0	n/a	n/a	0.0	0	0	0	catFR2	2	R1026D
1977.622	13.584	3172930	REC_WORD	7.103	n/a	BLOUSE	Clothing	11	1	11	[0, 0, 0]	n/a	0	1	0	n/a	n/a	0.0	0	0	0	catFR2	2	R1026D
1991.206	1.385	3194663	REC_WORD	20.687	n/a	HAMMER	Tools	10	1	11	[0, 0, 0]	n/a	0	1	0	n/a	n/a	0.0	0	0	0	catFR2	2	R1026D
1992.591	7.945	3196879	REC_WORD	22.072	n/a	AXE	Tools	9	1	11	[0, 0, 0]	n/a	0	1	0	n/a	n/a	0.0	0	0	0	catFR2	2	R1026D
2000.536	3.188	3209590	REC_END	n/a	n/a	n/a	n/a	-999	0	11	[0, 0, 0]	n/a	0	1	0	n/a	n/a	0.0	0	0	0	catFR2	2	R1026D
2003.724	0.0	3214691	TRIAL	n/a	n/a	n/a	n/a	-999	0	12	[0, 0, 0]	n/a	0	1	0	n/a	n/a	0.0	0	0	0	catFR2	2	R1026D
2003.724	10.0	3214691	COUNTDOWN_START	n/a	n/a	n/a	n/a	-999	0	12	[0, 0, 0]	n/a	0	1	0	n/a	n/a	0.0	0	0	0	catFR2	2	R1026D
2014.152	0.008	3231375	COUNTDOWN_END	n/a	n/a	n/a	n/a	-999	0	12	[0, 0, 0]	n/a	0	1	0	n/a	n/a	0.0	0	0	0	catFR2	2	R1026D
2014.16	1.6	3231388	ORIENT	n/a	n/a	n/a	n/a	-999	0	12	[0, 0, 0]	n/a	0	1	0	n/a	n/a	0.0	0	0	0	catFR2	2	R1026D
2017.993	1.6	3237520	WORD	n/a	wordpools/wordpool_categorized_EN.txt	KNEE	BodyParts	1	0	12	[0, 0, 0]	n/a	0	1	0	n/a	n/a	0.0	0	0	0	catFR2	2	R1026D
2020.478	1.6	3241496	WORD	n/a	wordpools/wordpool_categorized_EN.txt	FINGERS	BodyParts	2	0	12	[0, 0, 0]	n/a	0	1	0	n/a	n/a	0.0	0	0	0	catFR2	2	R1026D
2022.883	4.6	3245344	STIM_ON	n/a	n/a	n/a	n/a	-999	0	12	[0, 0, 0]	n/a	1	1	4600	LOTD3	LOTD4	500.0	50	230	300	catFR2	2	R1026D
2023.094	1.6	3245681	WORD	n/a	wordpools/wordpool_categorized_EN.txt	CARDINAL	Birds	3	0	12	[0, 0, 0]	n/a	1	1	4600	LOTD3	LOTD4	500.0	50	230	300	catFR2	2	R1026D
2025.479	1.6	3249497	WORD	n/a	wordpools/wordpool_categorized_EN.txt	DUCK	Birds	4	1	12	[0, 0, 0]	n/a	1	1	4600	LOTD3	LOTD4	500.0	50	230	300	catFR2	2	R1026D
2028.095	1.6	3253682	WORD	n/a	wordpools/wordpool_categorized_EN.txt	BARBIE	Toys	5	0	12	[0, 0, 0]	n/a	0	1	0	n/a	n/a	0.0	0	0	0	catFR2	2	R1026D
2030.712	1.6	3257869	WORD	n/a	wordpools/wordpool_categorized_EN.txt	PUZZLE	Toys	6	0	12	[0, 0, 0]	n/a	0	1	0	n/a	n/a	0.0	0	0	0	catFR2	2	R1026D
2032.953	4.6	3261455	STIM_ON	n/a	n/a	n/a	n/a	-999	0	12	[0, 0, 0]	n/a	1	1	4600	LOTD3	LOTD4	500.0	50	230	300	catFR2	2	R1026D
2033.163	1.6	3261791	WORD	n/a	wordpools/wordpool_categorized_EN.txt	FOOT	BodyParts	7	0	12	[0, 0, 0]	n/a	1	1	4600	LOTD3	LOTD4	500.0	50	230	300	catFR2	2	R1026D
2035.613	1.6	3265711	WORD	n/a	wordpools/wordpool_categorized_EN.txt	TOE	BodyParts	8	0	12	[0, 0, 0]	n/a	1	1	4600	LOTD3	LOTD4	500.0	50	230	300	catFR2	2	R1026D
2038.231	1.6	3269899	WORD	n/a	wordpools/wordpool_categorized_EN.txt	BASEBALL	Toys	9	0	12	[0, 0, 0]	n/a	0	1	0	n/a	n/a	0.0	0	0	0	catFR2	2	R1026D
2040.83	1.6	3274057	WORD	n/a	wordpools/wordpool_categorized_EN.txt	BLOCKS	Toys	10	0	12	[0, 0, 0]	n/a	0	1	0	n/a	n/a	0.0	0	0	0	catFR2	2	R1026D
2043.107	4.6	3277700	STIM_ON	n/a	n/a	n/a	n/a	-999	0	12	[0, 0, 0]	n/a	1	1	4600	LOTD3	LOTD4	500.0	50	230	300	catFR2	2	R1026D
2043.315	1.6	3278033	WORD	n/a	wordpools/wordpool_categorized_EN.txt	SPARROW	Birds	11	1	12	[0, 0, 0]	n/a	1	1	4600	LOTD3	LOTD4	500.0	50	230	300	catFR2	2	R1026D
2045.865	1.6	3282113	WORD	n/a	wordpools/wordpool_categorized_EN.txt	DOVE	Birds	12	1	12	[0, 0, 0]	n/a	1	1	4600	LOTD3	LOTD4	500.0	50	230	300	catFR2	2	R1026D
2047.483	0.0	3284702	DISTRACT_START	n/a	n/a	n/a	n/a	-999	0	12	[0, 0, 0]	n/a	0	1	0	n/a	n/a	0.0	0	0	0	catFR2	2	R1026D
2047.483	0.016	3284702	START	n/a	n/a	n/a	n/a	-999	0	12	[-999, -999, -999]	n/a	0	1	0	n/a	n/a	0.0	0	0	0	catFR2	2	R1026D
2047.499	9.584	3284727	PROB	9.554	n/a	n/a	n/a	-999	0	12	[3, 8, 3]	14	0	1	0	n/a	n/a	0.0	0	0	0	catFR2	2	R1026D
2057.083	5.052	3300061	PROB	5.026	n/a	n/a	n/a	-999	0	12	[7, 6, 5]	18	0	1	0	n/a	n/a	0.0	0	0	0	catFR2	2	R1026D
2062.135	7.654	3308144	PROB	7.654	n/a	n/a	n/a	-999	0	12	[5, 7, 9]	21	0	1	0	n/a	n/a	0.0	0	0	0	catFR2	2	R1026D
2069.789	0.013	3320390	STOP	n/a	n/a	n/a	n/a	-999	0	12	[-999, -999, -999]	n/a	0	1	0	n/a	n/a	0.0	0	0	0	catFR2	2	R1026D
2069.802	1.151	3320410	DISTRACT_END	n/a	n/a	n/a	n/a	-999	0	12	[0, 0, 0]	n/a	0	1	0	n/a	n/a	0.0	0	0	0	catFR2	2	R1026D
2070.953	4.065	3322252	REC_START	n/a	n/a	n/a	n/a	-999	0	12	[0, 0, 0]	n/a	0	1	0	n/a	n/a	0.0	0	0	0	catFR2	2	R1026D
2075.018	1.569	3328756	REC_WORD	4.065	n/a	SPARROW	Birds	11	1	12	[0, 0, 0]	n/a	0	1	0	n/a	n/a	0.0	0	0	0	catFR2	2	R1026D
2076.587	2.364	3331266	REC_WORD	5.634	n/a	DOVE	Birds	12	1	12	[0, 0, 0]	n/a	0	1	0	n/a	n/a	0.0	0	0	0	catFR2	2	R1026D
2078.951	1.673	3335048	REC_WORD	7.998	n/a	DUCK	Birds	4	1	12	[0, 0, 0]	n/a	0	1	0	n/a	n/a	0.0	0	0	0	catFR2	2	R1026D
2080.624	20.343	3337725	REC_WORD	9.671	n/a	FINCH	n/a	-999	0	12	[0, 0, 0]	n/a	0	1	0	n/a	n/a	0.0	0	0	0	catFR2	2	R1026D
2100.967	2.393	3370272	REC_END	n/a	n/a	n/a	n/a	-999	0	12	[0, 0, 0]	n/a	0	1	0	n/a	n/a	0.0	0	0	0	catFR2	2	R1026D
2103.36	0.0	3374100	TRIAL	n/a	n/a	n/a	n/a	-999	0	13	[0, 0, 0]	n/a	0	1	0	n/a	n/a	0.0	0	0	0	catFR2	2	R1026D
2103.36	10.0	3374100	COUNTDOWN_START	n/a	n/a	n/a	n/a	-999	0	13	[0, 0, 0]	n/a	0	1	0	n/a	n/a	0.0	0	0	0	catFR2	2	R1026D
2113.788	0.006	3390784	COUNTDOWN_END	n/a	n/a	n/a	n/a	-999	0	13	[0, 0, 0]	n/a	0	1	0	n/a	n/a	0.0	0	0	0	catFR2	2	R1026D
2113.794	1.6	3390794	ORIENT	n/a	n/a	n/a	n/a	-999	0	13	[0, 0, 0]	n/a	0	1	0	n/a	n/a	0.0	0	0	0	catFR2	2	R1026D
2117.328	4.6	3396448	STIM_ON	n/a	n/a	n/a	n/a	-999	0	13	[0, 0, 0]	n/a	1	1	4600	LOTD3	LOTD4	500.0	50	230	300	catFR2	2	R1026D
2117.545	1.6	3396795	WORD	n/a	wordpools/wordpool_categorized_EN.txt	CEILING	Building	1	1	13	[0, 0, 0]	n/a	1	1	4600	LOTD3	LOTD4	500.0	50	230	300	catFR2	2	R1026D
2120.111	1.6	3400901	WORD	n/a	wordpools/wordpool_categorized_EN.txt	WINDOW	Building	2	1	13	[0, 0, 0]	n/a	1	1	4600	LOTD3	LOTD4	500.0	50	230	300	catFR2	2	R1026D
2122.695	1.6	3405035	WORD	n/a	wordpools/wordpool_categorized_EN.txt	CARNATION	Flowers	3	1	13	[0, 0, 0]	n/a	0	1	0	n/a	n/a	0.0	0	0	0	catFR2	2	R1026D
2125.214	1.6	3409065	WORD	n/a	wordpools/wordpool_categorized_EN.txt	ORCHID	Flowers	4	1	13	[0, 0, 0]	n/a	0	1	0	n/a	n/a	0.0	0	0	0	catFR2	2	R1026D
2127.563	4.6	3412823	STIM_ON	n/a	n/a	n/a	n/a	-999	0	13	[0, 0, 0]	n/a	1	1	4600	LOTD3	LOTD4	500.0	50	230	300	catFR2	2	R1026D
2127.78	1.6	3413171	WORD	n/a	wordpools/wordpool_categorized_EN.txt	CAULIFLOWER	Vegetables	5	0	13	[0, 0, 0]	n/a	1	1	4600	LOTD3	LOTD4	500.0	50	230	300	catFR2	2	R1026D
2130.165	1.6	3416986	WORD	n/a	wordpools/wordpool_categorized_EN.txt	SPINACH	Vegetables	6	0	13	[0, 0, 0]	n/a	1	1	4600	LOTD3	LOTD4	500.0	50	230	300	catFR2	2	R1026D
2132.747	1.6	3421117	WORD	n/a	wordpools/wordpool_categorized_EN.txt	ROSE	Flowers	7	1	13	[0, 0, 0]	n/a	0	1	0	n/a	n/a	0.0	0	0	0	catFR2	2	R1026D
2135.215	1.6	3425066	WORD	n/a	wordpools/wordpool_categorized_EN.txt	LILY	Flowers	8	0	13	[0, 0, 0]	n/a	0	1	0	n/a	n/a	0.0	0	0	0	catFR2	2	R1026D
2137.405	4.6	3428570	STIM_ON	n/a	n/a	n/a	n/a	-999	0	13	[0, 0, 0]	n/a	1	1	4600	LOTD3	LOTD4	500.0	50	230	300	catFR2	2	R1026D
2137.615	1.6	3428906	WORD	n/a	wordpools/wordpool_categorized_EN.txt	HALLWAY	Building	9	0	13	[0, 0, 0]	n/a	1	1	4600	LOTD3	LOTD4	500.0	50	230	300	catFR2	2	R1026D
2140.233	1.6	3433094	WORD	n/a	wordpools/wordpool_categorized_EN.txt	FOUNDATION	Building	10	0	13	[0, 0, 0]	n/a	1	1	4600	LOTD3	LOTD4	500.0	50	230	300	catFR2	2	R1026D
2142.649	1.6	3436960	WORD	n/a	wordpools/wordpool_categorized_EN.txt	CUCUMBER	Vegetables	11	0	13	[0, 0, 0]	n/a	0	1	0	n/a	n/a	0.0	0	0	0	catFR2	2	R1026D
2145.033	1.6	3440774	WORD	n/a	wordpools/wordpool_categorized_EN.txt	BROCCOLI	Vegetables	12	0	13	[0, 0, 0]	n/a	0	1	0	n/a	n/a	0.0	0	0	0	catFR2	2	R1026D
2146.65	0.001	3443361	DISTRACT_START	n/a	n/a	n/a	n/a	-999	0	13	[0, 0, 0]	n/a	0	1	0	n/a	n/a	0.0	0	0	0	catFR2	2	R1026D
2146.651	0.016	3443363	START	n/a	n/a	n/a	n/a	-999	0	13	[-999, -999, -999]	n/a	0	1	0	n/a	n/a	0.0	0	0	0	catFR2	2	R1026D
2146.667	4.917	3443388	PROB	4.89	n/a	n/a	n/a	-999	0	13	[1, 2, 7]	10	0	1	0	n/a	n/a	0.0	0	0	0	catFR2	2	R1026D
2151.584	4.018	3451255	PROB	3.997	n/a	n/a	n/a	-999	0	13	[9, 9, 2]	20	0	1	0	n/a	n/a	0.0	0	0	0	catFR2	2	R1026D
2155.602	3.768	3457683	PROB	3.732	n/a	n/a	n/a	-999	0	13	[1, 4, 8]	13	0	1	0	n/a	n/a	0.0	0	0	0	catFR2	2	R1026D
2159.37	3.516	3463712	PROB	3.491	n/a	n/a	n/a	-999	0	13	[7, 1, 2]	10	0	1	0	n/a	n/a	0.0	0	0	0	catFR2	2	R1026D
2162.886	3.117	3469337	PROB	3.095	n/a	n/a	n/a	-999	0	13	[5, 9, 1]	15	0	1	0	n/a	n/a	0.0	0	0	0	catFR2	2	R1026D
2166.003	5.026	3474324	PROB	5.026	n/a	n/a	n/a	-999	0	13	[8, 7, 1]	16	0	1	0	n/a	n/a	0.0	0	0	0	catFR2	2	R1026D
2171.029	0.009	3482365	STOP	n/a	n/a	n/a	n/a	-999	0	13	[-999, -999, -999]	n/a	0	1	0	n/a	n/a	0.0	0	0	0	catFR2	2	R1026D
2171.038	1.219	3482380	DISTRACT_END	n/a	n/a	n/a	n/a	-999	0	13	[0, 0, 0]	n/a	0	1	0	n/a	n/a	0.0	0	0	0	catFR2	2	R1026D
2172.257	1.919	3484330	REC_START	n/a	n/a	n/a	n/a	-999	0	13	[0, 0, 0]	n/a	0	1	0	n/a	n/a	0.0	0	0	0	catFR2	2	R1026D
2174.176	1.22	3487400	REC_WORD	1.919	n/a	CEILING	Building	1	1	13	[0, 0, 0]	n/a	0	1	0	n/a	n/a	0.0	0	0	0	catFR2	2	R1026D
2175.396	3.967	3489352	REC_WORD	3.139	n/a	WINDOW	Building	2	1	13	[0, 0, 0]	n/a	0	1	0	n/a	n/a	0.0	0	0	0	catFR2	2	R1026D
2179.363	1.586	3495699	REC_WORD	7.106	n/a	CARNATION	Flowers	3	1	13	[0, 0, 0]	n/a	0	1	0	n/a	n/a	0.0	0	0	0	catFR2	2	R1026D
2180.949	3.179	3498237	REC_WORD	8.692	n/a	ORCHID	Flowers	4	1	13	[0, 0, 0]	n/a	0	1	0	n/a	n/a	0.0	0	0	0	catFR2	2	R1026D
2184.128	18.142	3503323	REC_WORD	11.871	n/a	ROSE	Flowers	7	1	13	[0, 0, 0]	n/a	0	1	0	n/a	n/a	0.0	0	0	0	catFR2	2	R1026D
2202.27	3.69	3532349	REC_END	n/a	n/a	n/a	n/a	-999	0	13	[0, 0, 0]	n/a	0	1	0	n/a	n/a	0.0	0	0	0	catFR2	2	R1026D
2205.96	10.0	3538252	COUNTDOWN_START	n/a	n/a	n/a	n/a	-999	0	14	[0, 0, 0]	n/a	0	1	0	n/a	n/a	0.0	0	0	0	catFR2	2	R1026D
2205.961	10.427	3538254	TRIAL	n/a	n/a	n/a	n/a	-999	0	14	[0, 0, 0]	n/a	0	1	0	n/a	n/a	0.0	0	0	0	catFR2	2	R1026D
2216.388	0.009	3554936	COUNTDOWN_END	n/a	n/a	n/a	n/a	-999	0	14	[0, 0, 0]	n/a	0	1	0	n/a	n/a	0.0	0	0	0	catFR2	2	R1026D
2216.397	1.6	3554951	ORIENT	n/a	n/a	n/a	n/a	-999	0	14	[0, 0, 0]	n/a	0	1	0	n/a	n/a	0.0	0	0	0	catFR2	2	R1026D
2219.796	4.6	3560389	STIM_ON	n/a	n/a	n/a	n/a	-999	0	14	[0, 0, 0]	n/a	1	1	4600	LOTD3	LOTD4	500.0	50	230	300	catFR2	2	R1026D
2220.013	1.6	3560736	WORD	n/a	wordpools/wordpool_categorized_EN.txt	PINE	Trees	1	0	14	[0, 0, 0]	n/a	1	1	4600	LOTD3	LOTD4	500.0	50	230	300	catFR2	2	R1026D
2222.398	1.6	3564552	WORD	n/a	wordpools/wordpool_categorized_EN.txt	CYPRESS	Trees	2	0	14	[0, 0, 0]	n/a	1	1	4600	LOTD3	LOTD4	500.0	50	230	300	catFR2	2	R1026D
2224.814	1.6	3568417	WORD	n/a	wordpools/wordpool_categorized_EN.txt	RAIN	Weather	3	0	14	[0, 0, 0]	n/a	0	1	0	n/a	n/a	0.0	0	0	0	catFR2	2	R1026D
2227.266	1.6	3572340	WORD	n/a	wordpools/wordpool_categorized_EN.txt	LIGHTNING	Weather	4	0	14	[0, 0, 0]	n/a	0	1	0	n/a	n/a	0.0	0	0	0	catFR2	2	R1026D
2229.634	4.6	3576129	STIM_ON	n/a	n/a	n/a	n/a	-999	0	14	[0, 0, 0]	n/a	1	1	4600	LOTD3	LOTD4	500.0	50	230	300	catFR2	2	R1026D
2229.849	1.6	3576473	WORD	n/a	wordpools/wordpool_categorized_EN.txt	BUTTERFLY	Insects	5	0	14	[0, 0, 0]	n/a	1	1	4600	LOTD3	LOTD4	500.0	50	230	300	catFR2	2	R1026D
2232.267	1.6	3580341	WORD	n/a	wordpools/wordpool_categorized_EN.txt	FLY	Insects	6	0	14	[0, 0, 0]	n/a	1	1	4600	LOTD3	LOTD4	500.0	50	230	300	catFR2	2	R1026D
2234.666	1.6	3584180	WORD	n/a	wordpools/wordpool_categorized_EN.txt	EVERGREEN	Trees	7	0	14	[0, 0, 0]	n/a	0	1	0	n/a	n/a	0.0	0	0	0	catFR2	2	R1026D
2237.184	1.6	3588208	WORD	n/a	wordpools/wordpool_categorized_EN.txt	MAPLE	Trees	8	0	14	[0, 0, 0]	n/a	0	1	0	n/a	n/a	0.0	0	0	0	catFR2	2	R1026D
2239.547	4.6	3591989	STIM_ON	n/a	n/a	n/a	n/a	-999	0	14	[0, 0, 0]	n/a	1	1	4600	LOTD3	LOTD4	500.0	50	230	300	catFR2	2	R1026D
2239.75	1.6	3592314	WORD	n/a	wordpools/wordpool_categorized_EN.txt	GNAT	Insects	9	0	14	[0, 0, 0]	n/a	1	1	4600	LOTD3	LOTD4	500.0	50	230	300	catFR2	2	R1026D
2242.185	1.6	3596209	WORD	n/a	wordpools/wordpool_categorized_EN.txt	MOTH	Insects	10	0	14	[0, 0, 0]	n/a	1	1	4600	LOTD3	LOTD4	500.0	50	230	300	catFR2	2	R1026D
2244.818	1.6	3600422	WORD	n/a	wordpools/wordpool_categorized_EN.txt	HURRICANE	Weather	11	0	14	[0, 0, 0]	n/a	0	1	0	n/a	n/a	0.0	0	0	0	catFR2	2	R1026D
2247.303	1.6	3604398	WORD	n/a	wordpools/wordpool_categorized_EN.txt	CLOUD	Weather	12	0	14	[0, 0, 0]	n/a	0	1	0	n/a	n/a	0.0	0	0	0	catFR2	2	R1026D
2248.919	0.001	3606983	DISTRACT_START	n/a	n/a	n/a	n/a	-999	0	14	[0, 0, 0]	n/a	0	1	0	n/a	n/a	0.0	0	0	0	catFR2	2	R1026D
2248.92	0.015	3606985	START	n/a	n/a	n/a	n/a	-999	0	14	[-999, -999, -999]	n/a	0	1	0	n/a	n/a	0.0	0	0	0	catFR2	2	R1026D
2248.935	7.436	3607009	PROB	7.415	n/a	n/a	n/a	-999	0	14	[8, 4, 3]	15	0	1	0	n/a	n/a	0.0	0	0	0	catFR2	2	R1026D
2256.371	2.767	3618906	PROB	2.738	n/a	n/a	n/a	-999	0	14	[2, 8, 3]	13	0	1	0	n/a	n/a	0.0	0	0	0	catFR2	2	R1026D
2259.138	5.634	3623333	PROB	5.603	n/a	n/a	n/a	-999	0	14	[9, 6, 9]	24	0	1	0	n/a	n/a	0.0	0	0	0	catFR2	2	R1026D
2264.772	4.257	3632347	PROB	4.257	n/a	n/a	n/a	-999	0	14	[6, 9, 4]	19	0	1	0	n/a	n/a	0.0	0	0	0	catFR2	2	R1026D
2269.029	0.01	3639158	STOP	n/a	n/a	n/a	n/a	-999	0	14	[-999, -999, -999]	n/a	0	1	0	n/a	n/a	0.0	0	0	0	catFR2	2	R1026D
2269.039	1.135	3639174	DISTRACT_END	n/a	n/a	n/a	n/a	-999	0	14	[0, 0, 0]	n/a	0	1	0	n/a	n/a	0.0	0	0	0	catFR2	2	R1026D
2270.174	29.994	3640990	REC_START	n/a	n/a	n/a	n/a	-999	0	14	[0, 0, 0]	n/a	0	1	0	n/a	n/a	0.0	0	0	0	catFR2	2	R1026D
2300.168	0.019	3688978	REC_WORD_VV	29.994	n/a	<>	n/a	-999	0	14	[0, 0, 0]	n/a	0	1	0	n/a	n/a	0.0	0	0	0	catFR2	2	R1026D
2300.187	14.377	3689008	REC_END	n/a	n/a	n/a	n/a	-999	0	14	[0, 0, 0]	n/a	0	1	0	n/a	n/a	0.0	0	0	0	catFR2	2	R1026D
2314.564	0.0	3712010	TRIAL	n/a	n/a	n/a	n/a	-999	0	15	[0, 0, 0]	n/a	0	1	0	n/a	n/a	0.0	0	0	0	catFR2	2	R1026D
2314.564	10.0	3712010	COUNTDOWN_START	n/a	n/a	n/a	n/a	-999	0	15	[0, 0, 0]	n/a	0	1	0	n/a	n/a	0.0	0	0	0	catFR2	2	R1026D
2324.992	0.007	3728694	COUNTDOWN_END	n/a	n/a	n/a	n/a	-999	0	15	[0, 0, 0]	n/a	0	1	0	n/a	n/a	0.0	0	0	0	catFR2	2	R1026D
2324.999	1.6	3728705	ORIENT	n/a	n/a	n/a	n/a	-999	0	15	[0, 0, 0]	n/a	0	1	0	n/a	n/a	0.0	0	0	0	catFR2	2	R1026D
2328.619	4.6	3734497	STIM_ON	n/a	n/a	n/a	n/a	-999	0	15	[0, 0, 0]	n/a	1	1	4600	LOTD3	LOTD4	500.0	50	230	300	catFR2	2	R1026D
2328.833	1.6	3734839	WORD	n/a	wordpools/wordpool_categorized_EN.txt	OCEAN	Landscapes	1	0	15	[0, 0, 0]	n/a	1	1	4600	LOTD3	LOTD4	500.0	50	230	300	catFR2	2	R1026D
2331.218	1.6	3738655	WORD	n/a	wordpools/wordpool_categorized_EN.txt	RIVER	Landscapes	2	0	15	[0, 0, 0]	n/a	1	1	4600	LOTD3	LOTD4	500.0	50	230	300	catFR2	2	R1026D
2333.734	1.6	3742680	WORD	n/a	wordpools/wordpool_categorized_EN.txt	TURKEY	FarmAnimals	3	0	15	[0, 0, 0]	n/a	0	1	0	n/a	n/a	0.0	0	0	0	catFR2	2	R1026D
2336.152	1.6	3746549	WORD	n/a	wordpools/wordpool_categorized_EN.txt	HEN	FarmAnimals	4	0	15	[0, 0, 0]	n/a	0	1	0	n/a	n/a	0.0	0	0	0	catFR2	2	R1026D
2338.339	4.6	3750048	STIM_ON	n/a	n/a	n/a	n/a	-999	0	15	[0, 0, 0]	n/a	1	1	4600	LOTD3	LOTD4	500.0	50	230	300	catFR2	2	R1026D
2338.552	1.6	3750389	WORD	n/a	wordpools/wordpool_categorized_EN.txt	PENCIL	OfficeSupplies	5	0	15	[0, 0, 0]	n/a	1	1	4600	LOTD3	LOTD4	500.0	50	230	300	catFR2	2	R1026D
2341.102	1.6	3754469	WORD	n/a	wordpools/wordpool_categorized_EN.txt	STAPLER	OfficeSupplies	6	0	15	[0, 0, 0]	n/a	1	1	4600	LOTD3	LOTD4	500.0	50	230	300	catFR2	2	R1026D
2343.619	1.6	3758496	WORD	n/a	wordpools/wordpool_categorized_EN.txt	LAMB	FarmAnimals	7	0	15	[0, 0, 0]	n/a	0	1	0	n/a	n/a	0.0	0	0	0	catFR2	2	R1026D
2346.003	1.6	3762310	WORD	n/a	wordpools/wordpool_categorized_EN.txt	CALF	FarmAnimals	8	0	15	[0, 0, 0]	n/a	0	1	0	n/a	n/a	0.0	0	0	0	catFR2	2	R1026D
2348.241	4.6	3765891	STIM_ON	n/a	n/a	n/a	n/a	-999	0	15	[0, 0, 0]	n/a	1	1	4600	LOTD3	LOTD4	500.0	50	230	300	catFR2	2	R1026D
2348.455	1.6	3766233	WORD	n/a	wordpools/wordpool_categorized_EN.txt	STREAM	Landscapes	9	0	15	[0, 0, 0]	n/a	1	1	4600	LOTD3	LOTD4	500.0	50	230	300	catFR2	2	R1026D
2351.021	1.6	3770338	WORD	n/a	wordpools/wordpool_categorized_EN.txt	HILLS	Landscapes	10	0	15	[0, 0, 0]	n/a	1	1	4600	LOTD3	LOTD4	500.0	50	230	300	catFR2	2	R1026D
2353.472	1.6	3774260	WORD	n/a	wordpools/wordpool_categorized_EN.txt	NOTEBOOK	OfficeSupplies	11	0	15	[0, 0, 0]	n/a	0	1	0	n/a	n/a	0.0	0	0	0	catFR2	2	R1026D
2356.022	1.6	3778339	WORD	n/a	wordpools/wordpool_categorized_EN.txt	TAPE	OfficeSupplies	12	1	15	[0, 0, 0]	n/a	0	1	0	n/a	n/a	0.0	0	0	0	catFR2	2	R1026D
2357.639	0.001	3780927	DISTRACT_START	n/a	n/a	n/a	n/a	-999	0	15	[0, 0, 0]	n/a	0	1	0	n/a	n/a	0.0	0	0	0	catFR2	2	R1026D
2357.64	0.015	3780928	START	n/a	n/a	n/a	n/a	-999	0	15	[-999, -999, -999]	n/a	0	1	0	n/a	n/a	0.0	0	0	0	catFR2	2	R1026D
2357.655	10.135	3780952	PROB	10.102	n/a	n/a	n/a	-999	0	15	[1, 4, 7]	12	0	1	0	n/a	n/a	0.0	0	0	0	catFR2	2	R1026D
2367.79	3.636	3797167	PROB	3.608	n/a	n/a	n/a	-999	0	15	[5, 3, 8]	16	0	1	0	n/a	n/a	0.0	0	0	0	catFR2	2	R1026D
2371.426	4.8	3802985	PROB	4.772	n/a	n/a	n/a	-999	0	15	[8, 4, 7]	19	0	1	0	n/a	n/a	0.0	0	0	0	catFR2	2	R1026D
2376.226	6.26	3810664	PROB	6.26	n/a	n/a	n/a	-999	0	15	[3, 9, 5]	17	0	1	0	n/a	n/a	0.0	0	0	0	catFR2	2	R1026D
2382.486	0.008	3820680	STOP	n/a	n/a	n/a	n/a	-999	0	15	[-999, -999, -999]	n/a	0	1	0	n/a	n/a	0.0	0	0	0	catFR2	2	R1026D
2382.494	1.201	3820693	DISTRACT_END	n/a	n/a	n/a	n/a	-999	0	15	[0, 0, 0]	n/a	0	1	0	n/a	n/a	0.0	0	0	0	catFR2	2	R1026D
2383.695	7.199	3822614	REC_START	n/a	n/a	n/a	n/a	-999	0	15	[0, 0, 0]	n/a	0	1	0	n/a	n/a	0.0	0	0	0	catFR2	2	R1026D
2390.894	1.604	3834132	REC_WORD	7.199	n/a	TAPE	OfficeSupplies	12	1	15	[0, 0, 0]	n/a	0	1	0	n/a	n/a	0.0	0	0	0	catFR2	2	R1026D
2392.498	6.871	3836698	REC_WORD	8.803	n/a	FLY	n/a	-999	0	15	[0, 0, 0]	n/a	0	1	0	n/a	n/a	0.0	0	0	0	catFR2	2	R1026D
2399.369	14.339	3847691	REC_WORD	15.674	n/a	GNAT	n/a	-999	0	15	[0, 0, 0]	n/a	0	1	0	n/a	n/a	0.0	0	0	0	catFR2	2	R1026D
2413.708	5.075	3870632	REC_END	n/a	n/a	n/a	n/a	-999	0	15	[0, 0, 0]	n/a	0	1	0	n/a	n/a	0.0	0	0	0	catFR2	2	R1026D
2418.783	10.0	3878752	COUNTDOWN_START	n/a	n/a	n/a	n/a	-999	0	16	[0, 0, 0]	n/a	0	1	0	n/a	n/a	0.0	0	0	0	catFR2	2	R1026D
2418.784	10.427	3878754	TRIAL	n/a	n/a	n/a	n/a	-999	0	16	[0, 0, 0]	n/a	0	1	0	n/a	n/a	0.0	0	0	0	catFR2	2	R1026D
2429.211	0.008	3895436	COUNTDOWN_END	n/a	n/a	n/a	n/a	-999	0	16	[0, 0, 0]	n/a	0	1	0	n/a	n/a	0.0	0	0	0	catFR2	2	R1026D
2429.219	1.6	3895449	ORIENT	n/a	n/a	n/a	n/a	-999	0	16	[0, 0, 0]	n/a	0	1	0	n/a	n/a	0.0	0	0	0	catFR2	2	R1026D
2432.685	4.6	3900994	STIM_ON	n/a	n/a	n/a	n/a	-999	0	16	[0, 0, 0]	n/a	1	1	4600	LOTD3	LOTD4	500.0	50	230	300	catFR2	2	R1026D
2432.902	1.6	3901341	WORD	n/a	wordpools/wordpool_categorized_EN.txt	BULL	FarmAnimals	1	1	16	[0, 0, 0]	n/a	1	1	4600	LOTD3	LOTD4	500.0	50	230	300	catFR2	2	R1026D
2435.337	1.6	3905237	WORD	n/a	wordpools/wordpool_categorized_EN.txt	PIG	FarmAnimals	2	1	16	[0, 0, 0]	n/a	1	1	4600	LOTD3	LOTD4	500.0	50	230	300	catFR2	2	R1026D
2437.92	1.6	3909370	WORD	n/a	wordpools/wordpool_categorized_EN.txt	CARROT	Vegetables	3	0	16	[0, 0, 0]	n/a	0	1	0	n/a	n/a	0.0	0	0	0	catFR2	2	R1026D
2440.505	1.6	3913506	WORD	n/a	wordpools/wordpool_categorized_EN.txt	POTATO	Vegetables	4	0	16	[0, 0, 0]	n/a	0	1	0	n/a	n/a	0.0	0	0	0	catFR2	2	R1026D
2442.821	4.6	3917211	STIM_ON	n/a	n/a	n/a	n/a	-999	0	16	[0, 0, 0]	n/a	1	1	4600	LOTD3	LOTD4	500.0	50	230	300	catFR2	2	R1026D
2443.038	1.6	3917558	WORD	n/a	wordpools/wordpool_categorized_EN.txt	NIGHTSTAND	Furniture	5	0	16	[0, 0, 0]	n/a	1	1	4600	LOTD3	LOTD4	500.0	50	230	300	catFR2	2	R1026D
2445.538	1.6	3921558	WORD	n/a	wordpools/wordpool_categorized_EN.txt	SOFA	Furniture	6	0	16	[0, 0, 0]	n/a	1	1	4600	LOTD3	LOTD4	500.0	50	230	300	catFR2	2	R1026D
2447.939	1.6	3925399	WORD	n/a	wordpools/wordpool_categorized_EN.txt	HORSE	FarmAnimals	7	1	16	[0, 0, 0]	n/a	0	1	0	n/a	n/a	0.0	0	0	0	catFR2	2	R1026D
2450.357	1.6	3929268	WORD	n/a	wordpools/wordpool_categorized_EN.txt	COW	FarmAnimals	8	1	16	[0, 0, 0]	n/a	0	1	0	n/a	n/a	0.0	0	0	0	catFR2	2	R1026D
2452.605	4.6	3932865	STIM_ON	n/a	n/a	n/a	n/a	-999	0	16	[0, 0, 0]	n/a	1	1	4600	LOTD3	LOTD4	500.0	50	230	300	catFR2	2	R1026D
2452.823	1.6	3933213	WORD	n/a	wordpools/wordpool_categorized_EN.txt	DESK	Furniture	9	0	16	[0, 0, 0]	n/a	1	1	4600	LOTD3	LOTD4	500.0	50	230	300	catFR2	2	R1026D
2455.408	1.6	3937349	WORD	n/a	wordpools/wordpool_categorized_EN.txt	TABLE	Furniture	10	0	16	[0, 0, 0]	n/a	1	1	4600	LOTD3	LOTD4	500.0	50	230	300	catFR2	2	R1026D
2457.89	1.6	3941320	WORD	n/a	wordpools/wordpool_categorized_EN.txt	CORN	Vegetables	11	0	16	[0, 0, 0]	n/a	0	1	0	n/a	n/a	0.0	0	0	0	catFR2	2	R1026D
2460.258	1.6	3945109	WORD	n/a	wordpools/wordpool_categorized_EN.txt	CABBAGE	Vegetables	12	0	16	[0, 0, 0]	n/a	0	1	0	n/a	n/a	0.0	0	0	0	catFR2	2	R1026D
2461.875	0.001	3947696	DISTRACT_START	n/a	n/a	n/a	n/a	-999	0	16	[0, 0, 0]	n/a	0	1	0	n/a	n/a	0.0	0	0	0	catFR2	2	R1026D
2461.876	0.015	3947697	START	n/a	n/a	n/a	n/a	-999	0	16	[-999, -999, -999]	n/a	0	1	0	n/a	n/a	0.0	0	0	0	catFR2	2	R1026D
2461.891	5.619	3947721	PROB	5.587	n/a	n/a	n/a	-999	0	16	[1, 5, 9]	15	0	1	0	n/a	n/a	0.0	0	0	0	catFR2	2	R1026D
2467.51	2.951	3956711	PROB	2.928	n/a	n/a	n/a	-999	0	16	[1, 6, 5]	12	0	1	0	n/a	n/a	0.0	0	0	0	catFR2	2	R1026D
2470.461	3.216	3961433	PROB	3.192	n/a	n/a	n/a	-999	0	16	[4, 8, 3]	15	0	1	0	n/a	n/a	0.0	0	0	0	catFR2	2	R1026D
2473.677	5.802	3966578	PROB	5.769	n/a	n/a	n/a	-999	0	16	[8, 5, 5]	18	0	1	0	n/a	n/a	0.0	0	0	0	catFR2	2	R1026D
2479.479	4.703	3975861	PROB	4.703	n/a	n/a	n/a	-999	0	16	[2, 5, 8]	15	0	1	0	n/a	n/a	0.0	0	0	0	catFR2	2	R1026D
2484.182	0.014	3983385	STOP	n/a	n/a	n/a	n/a	-999	0	16	[-999, -999, -999]	n/a	0	1	0	n/a	n/a	0.0	0	0	0	catFR2	2	R1026D
2484.196	1.018	3983408	DISTRACT_END	n/a	n/a	n/a	n/a	-999	0	16	[0, 0, 0]	n/a	0	1	0	n/a	n/a	0.0	0	0	0	catFR2	2	R1026D
2485.214	1.718	3985036	REC_START	n/a	n/a	n/a	n/a	-999	0	16	[0, 0, 0]	n/a	0	1	0	n/a	n/a	0.0	0	0	0	catFR2	2	R1026D
2486.932	1.039	3987785	REC_WORD	1.718	n/a	BULL	FarmAnimals	1	1	16	[0, 0, 0]	n/a	0	1	0	n/a	n/a	0.0	0	0	0	catFR2	2	R1026D
2487.971	1.424	3989447	REC_WORD	2.757	n/a	PIG	FarmAnimals	2	1	16	[0, 0, 0]	n/a	0	1	0	n/a	n/a	0.0	0	0	0	catFR2	2	R1026D
2489.395	2.079	3991726	REC_WORD	4.181	n/a	HORSE	FarmAnimals	7	1	16	[0, 0, 0]	n/a	0	1	0	n/a	n/a	0.0	0	0	0	catFR2	2	R1026D
2491.474	23.753	3995052	REC_WORD	6.26	n/a	COW	FarmAnimals	8	1	16	[0, 0, 0]	n/a	0	1	0	n/a	n/a	0.0	0	0	0	catFR2	2	R1026D
2515.227	3.109	4033055	REC_END	n/a	n/a	n/a	n/a	-999	0	16	[0, 0, 0]	n/a	0	1	0	n/a	n/a	0.0	0	0	0	catFR2	2	R1026D
2518.336	0.0	4038029	TRIAL	n/a	n/a	n/a	n/a	-999	0	17	[0, 0, 0]	n/a	0	1	0	n/a	n/a	0.0	0	0	0	catFR2	2	R1026D
2518.336	10.0	4038029	COUNTDOWN_START	n/a	n/a	n/a	n/a	-999	0	17	[0, 0, 0]	n/a	0	1	0	n/a	n/a	0.0	0	0	0	catFR2	2	R1026D
2528.764	0.006	4054713	COUNTDOWN_END	n/a	n/a	n/a	n/a	-999	0	17	[0, 0, 0]	n/a	0	1	0	n/a	n/a	0.0	0	0	0	catFR2	2	R1026D
2528.77	1.6	4054722	ORIENT	n/a	n/a	n/a	n/a	-999	0	17	[0, 0, 0]	n/a	0	1	0	n/a	n/a	0.0	0	0	0	catFR2	2	R1026D
2532.489	1.6	4060673	WORD	n/a	wordpools/wordpool_categorized_EN.txt	SANDER	Tools	1	1	17	[0, 0, 0]	n/a	0	1	0	n/a	n/a	0.0	0	0	0	catFR2	2	R1026D
2534.938	1.6	4064591	WORD	n/a	wordpools/wordpool_categorized_EN.txt	PLIERS	Tools	2	1	17	[0, 0, 0]	n/a	0	1	0	n/a	n/a	0.0	0	0	0	catFR2	2	R1026D
2537.197	4.6	4068205	STIM_ON	n/a	n/a	n/a	n/a	-999	0	17	[0, 0, 0]	n/a	1	1	4600	LOTD3	LOTD4	500.0	50	230	300	catFR2	2	R1026D
2537.406	1.6	4068539	WORD	n/a	wordpools/wordpool_categorized_EN.txt	SUNFLOWER	Flowers	3	1	17	[0, 0, 0]	n/a	1	1	4600	LOTD3	LOTD4	500.0	50	230	300	catFR2	2	R1026D
2539.972	1.6	4072645	WORD	n/a	wordpools/wordpool_categorized_EN.txt	MARIGOLD	Flowers	4	1	17	[0, 0, 0]	n/a	1	1	4600	LOTD3	LOTD4	500.0	50	230	300	catFR2	2	R1026D
2542.424	1.6	4076568	WORD	n/a	wordpools/wordpool_categorized_EN.txt	ANT	Insects	5	0	17	[0, 0, 0]	n/a	0	1	0	n/a	n/a	0.0	0	0	0	catFR2	2	R1026D
2544.973	1.6	4080646	WORD	n/a	wordpools/wordpool_categorized_EN.txt	BEE	Insects	6	0	17	[0, 0, 0]	n/a	0	1	0	n/a	n/a	0.0	0	0	0	catFR2	2	R1026D
2547.326	4.6	4084411	STIM_ON	n/a	n/a	n/a	n/a	-999	0	17	[0, 0, 0]	n/a	1	1	4600	LOTD3	LOTD4	500.0	50	230	300	catFR2	2	R1026D
2547.54	1.6	4084753	WORD	n/a	wordpools/wordpool_categorized_EN.txt	SCREWDRIVER	Tools	7	1	17	[0, 0, 0]	n/a	1	1	4600	LOTD3	LOTD4	500.0	50	230	300	catFR2	2	R1026D
2550.091	1.6	4088834	WORD	n/a	wordpools/wordpool_categorized_EN.txt	SAW	Tools	8	0	17	[0, 0, 0]	n/a	1	1	4600	LOTD3	LOTD4	500.0	50	230	300	catFR2	2	R1026D
2552.492	1.6	4092676	WORD	n/a	wordpools/wordpool_categorized_EN.txt	CRICKET	Insects	9	0	17	[0, 0, 0]	n/a	0	1	0	n/a	n/a	0.0	0	0	0	catFR2	2	R1026D
2555.058	1.6	4096781	WORD	n/a	wordpools/wordpool_categorized_EN.txt	SPIDER	Insects	10	0	17	[0, 0, 0]	n/a	0	1	0	n/a	n/a	0.0	0	0	0	catFR2	2	R1026D
2557.255	4.6	4100296	STIM_ON	n/a	n/a	n/a	n/a	-999	0	17	[0, 0, 0]	n/a	1	1	4600	LOTD3	LOTD4	500.0	50	230	300	catFR2	2	R1026D
2557.46	1.6	4100624	WORD	n/a	wordpools/wordpool_categorized_EN.txt	DAISY	Flowers	11	1	17	[0, 0, 0]	n/a	1	1	4600	LOTD3	LOTD4	500.0	50	230	300	catFR2	2	R1026D
2559.992	1.6	4104675	WORD	n/a	wordpools/wordpool_categorized_EN.txt	TULIP	Flowers	12	0	17	[0, 0, 0]	n/a	1	1	4600	LOTD3	LOTD4	500.0	50	230	300	catFR2	2	R1026D
2561.61	0.001	4107264	DISTRACT_START	n/a	n/a	n/a	n/a	-999	0	17	[0, 0, 0]	n/a	0	1	0	n/a	n/a	0.0	0	0	0	catFR2	2	R1026D
2561.611	0.015	4107265	START	n/a	n/a	n/a	n/a	-999	0	17	[-999, -999, -999]	n/a	0	1	0	n/a	n/a	0.0	0	0	0	catFR2	2	R1026D
2561.626	5.035	4107289	PROB	5.011	n/a	n/a	n/a	-999	0	17	[1, 1, 7]	9	0	1	0	n/a	n/a	0.0	0	0	0	catFR2	2	R1026D
2566.661	6.502	4115345	PROB	6.481	n/a	n/a	n/a	-999	0	17	[8, 7, 8]	23	0	1	0	n/a	n/a	0.0	0	0	0	catFR2	2	R1026D
2573.163	3.984	4125748	PROB	3.955	n/a	n/a	n/a	-999	0	17	[5, 3, 4]	12	0	1	0	n/a	n/a	0.0	0	0	0	catFR2	2	R1026D
2577.147	3.383	4132122	PROB	3.347	n/a	n/a	n/a	-999	0	17	[8, 1, 2]	11	0	1	0	n/a	n/a	0.0	0	0	0	catFR2	2	R1026D
2580.53	6.796	4137534	PROB	6.796	n/a	n/a	n/a	-999	0	17	[8, 4, 8]	20	0	1	0	n/a	n/a	0.0	0	0	0	catFR2	2	R1026D
2587.326	0.006	4148407	STOP	n/a	n/a	n/a	n/a	-999	0	17	[-999, -999, -999]	n/a	0	1	0	n/a	n/a	0.0	0	0	0	catFR2	2	R1026D
2587.332	1.034	4148417	DISTRACT_END	n/a	n/a	n/a	n/a	-999	0	17	[0, 0, 0]	n/a	0	1	0	n/a	n/a	0.0	0	0	0	catFR2	2	R1026D
2588.366	2.238	4150071	REC_START	n/a	n/a	n/a	n/a	-999	0	17	[0, 0, 0]	n/a	0	1	0	n/a	n/a	0.0	0	0	0	catFR2	2	R1026D
2590.604	1.73	4153652	REC_WORD	2.238	n/a	SANDER	Tools	1	1	17	[0, 0, 0]	n/a	0	1	0	n/a	n/a	0.0	0	0	0	catFR2	2	R1026D
2592.334	2.586	4156420	REC_WORD	3.968	n/a	PLIERS	Tools	2	1	17	[0, 0, 0]	n/a	0	1	0	n/a	n/a	0.0	0	0	0	catFR2	2	R1026D
2594.92	2.676	4160557	REC_WORD	6.554	n/a	SCREWDRIVER	Tools	7	1	17	[0, 0, 0]	n/a	0	1	0	n/a	n/a	0.0	0	0	0	catFR2	2	R1026D
2597.596	1.652	4164839	REC_WORD	9.23	n/a	SUNFLOWER	Flowers	3	1	17	[0, 0, 0]	n/a	0	1	0	n/a	n/a	0.0	0	0	0	catFR2	2	R1026D
2599.248	9.465	4167482	REC_WORD	10.882	n/a	MARIGOLD	Flowers	4	1	17	[0, 0, 0]	n/a	0	1	0	n/a	n/a	0.0	0	0	0	catFR2	2	R1026D
2608.713	9.665	4182625	REC_WORD	20.347	n/a	DAISY	Flowers	11	1	17	[0, 0, 0]	n/a	0	1	0	n/a	n/a	0.0	0	0	0	catFR2	2	R1026D
2618.378	7.477	4198088	REC_END	n/a	n/a	n/a	n/a	-999	0	17	[0, 0, 0]	n/a	0	1	0	n/a	n/a	0.0	0	0	0	catFR2	2	R1026D
2625.855	10.0	4210051	COUNTDOWN_START	n/a	n/a	n/a	n/a	-999	0	18	[0, 0, 0]	n/a	0	1	0	n/a	n/a	0.0	0	0	0	catFR2	2	R1026D
2625.855	10.428	4210051	TRIAL	n/a	n/a	n/a	n/a	-999	0	18	[0, 0, 0]	n/a	0	1	0	n/a	n/a	0.0	0	0	0	catFR2	2	R1026D
2636.283	0.008	4226735	COUNTDOWN_END	n/a	n/a	n/a	n/a	-999	0	18	[0, 0, 0]	n/a	0	1	0	n/a	n/a	0.0	0	0	0	catFR2	2	R1026D
2636.291	1.6	4226748	ORIENT	n/a	n/a	n/a	n/a	-999	0	18	[0, 0, 0]	n/a	0	1	0	n/a	n/a	0.0	0	0	0	catFR2	2	R1026D
2639.967	4.6	4232629	STIM_ON	n/a	n/a	n/a	n/a	-999	0	18	[0, 0, 0]	n/a	1	1	4600	LOTD3	LOTD4	500.0	50	230	300	catFR2	2	R1026D
2640.175	1.6	4232962	WORD	n/a	wordpools/wordpool_categorized_EN.txt	PLANE	Vehicles	1	0	18	[0, 0, 0]	n/a	1	1	4600	LOTD3	LOTD4	500.0	50	230	300	catFR2	2	R1026D
2642.674	1.6	4236960	WORD	n/a	wordpools/wordpool_categorized_EN.txt	MOPED	Vehicles	2	1	18	[0, 0, 0]	n/a	1	1	4600	LOTD3	LOTD4	500.0	50	230	300	catFR2	2	R1026D
2645.058	1.6	4240774	WORD	n/a	wordpools/wordpool_categorized_EN.txt	SHIRT	Clothing	3	1	18	[0, 0, 0]	n/a	0	1	0	n/a	n/a	0.0	0	0	0	catFR2	2	R1026D
2647.659	1.6	4244935	WORD	n/a	wordpools/wordpool_categorized_EN.txt	JACKET	Clothing	4	1	18	[0, 0, 0]	n/a	0	1	0	n/a	n/a	0.0	0	0	0	catFR2	2	R1026D
2649.975	4.6	4248641	STIM_ON	n/a	n/a	n/a	n/a	-999	0	18	[0, 0, 0]	n/a	1	1	4600	LOTD3	LOTD4	500.0	50	230	300	catFR2	2	R1026D
2650.177	1.6	4248964	WORD	n/a	wordpools/wordpool_categorized_EN.txt	FORK	KitchenTools	5	0	18	[0, 0, 0]	n/a	1	1	4600	LOTD3	LOTD4	500.0	50	230	300	catFR2	2	R1026D
2652.626	1.6	4252882	WORD	n/a	wordpools/wordpool_categorized_EN.txt	SPATULA	KitchenTools	6	0	18	[0, 0, 0]	n/a	1	1	4600	LOTD3	LOTD4	500.0	50	230	300	catFR2	2	R1026D
2655.027	1.6	4256724	WORD	n/a	wordpools/wordpool_categorized_EN.txt	VAN	Vehicles	7	0	18	[0, 0, 0]	n/a	0	1	0	n/a	n/a	0.0	0	0	0	catFR2	2	R1026D
2657.495	1.6	4260672	WORD	n/a	wordpools/wordpool_categorized_EN.txt	BIKE	Vehicles	8	0	18	[0, 0, 0]	n/a	0	1	0	n/a	n/a	0.0	0	0	0	catFR2	2	R1026D
2659.678	4.6	4264165	STIM_ON	n/a	n/a	n/a	n/a	-999	0	18	[0, 0, 0]	n/a	1	1	4600	LOTD3	LOTD4	500.0	50	230	300	catFR2	2	R1026D
2659.894	1.6	4264510	WORD	n/a	wordpools/wordpool_categorized_EN.txt	SPOON	KitchenTools	9	0	18	[0, 0, 0]	n/a	1	1	4600	LOTD3	LOTD4	500.0	50	230	300	catFR2	2	R1026D
2662.429	1.6	4268566	WORD	n/a	wordpools/wordpool_categorized_EN.txt	STRAINER	KitchenTools	10	0	18	[0, 0, 0]	n/a	1	1	4600	LOTD3	LOTD4	500.0	50	230	300	catFR2	2	R1026D
2665.029	1.6	4272726	WORD	n/a	wordpools/wordpool_categorized_EN.txt	SHORTS	Clothing	11	0	18	[0, 0, 0]	n/a	0	1	0	n/a	n/a	0.0	0	0	0	catFR2	2	R1026D
2667.612	1.6	4276859	WORD	n/a	wordpools/wordpool_categorized_EN.txt	SHOES	Clothing	12	0	18	[0, 0, 0]	n/a	0	1	0	n/a	n/a	0.0	0	0	0	catFR2	2	R1026D
2669.213	0.001	4279420	DISTRACT_START	n/a	n/a	n/a	n/a	-999	0	18	[0, 0, 0]	n/a	0	1	0	n/a	n/a	0.0	0	0	0	catFR2	2	R1026D
2669.214	0.016	4279422	START	n/a	n/a	n/a	n/a	-999	0	18	[-999, -999, -999]	n/a	0	1	0	n/a	n/a	0.0	0	0	0	catFR2	2	R1026D
2669.23	3.467	4279447	PROB	3.439	n/a	n/a	n/a	-999	0	18	[3, 2, 4]	9	0	1	0	n/a	n/a	0.0	0	0	0	catFR2	2	R1026D
2672.697	6.819	4284994	PROB	6.789	n/a	n/a	n/a	-999	0	18	[8, 7, 8]	23	0	1	0	n/a	n/a	0.0	0	0	0	catFR2	2	R1026D
2679.516	4.784	4295904	PROB	4.754	n/a	n/a	n/a	-999	0	18	[4, 9, 2]	15	0	1	0	n/a	n/a	0.0	0	0	0	catFR2	2	R1026D
2684.3	10.777	4303558	PROB	10.777	n/a	n/a	n/a	-999	0	18	[9, 6, 7]	22	0	1	0	n/a	n/a	0.0	0	0	0	catFR2	2	R1026D
2695.077	0.007	4320800	STOP	n/a	n/a	n/a	n/a	-999	0	18	[-999, -999, -999]	n/a	0	1	0	n/a	n/a	0.0	0	0	0	catFR2	2	R1026D
2695.084	1.052	4320812	DISTRACT_END	n/a	n/a	n/a	n/a	-999	0	18	[0, 0, 0]	n/a	0	1	0	n/a	n/a	0.0	0	0	0	catFR2	2	R1026D
2696.136	7.263	4322495	REC_START	n/a	n/a	n/a	n/a	-999	0	18	[0, 0, 0]	n/a	0	1	0	n/a	n/a	0.0	0	0	0	catFR2	2	R1026D
2703.399	1.304	4334115	REC_WORD	7.263	n/a	MOPED	Vehicles	2	1	18	[0, 0, 0]	n/a	0	1	0	n/a	n/a	0.0	0	0	0	catFR2	2	R1026D
2704.703	1.453	4336201	REC_WORD	8.567	n/a	SHIRT	Clothing	3	1	18	[0, 0, 0]	n/a	0	1	0	n/a	n/a	0.0	0	0	0	catFR2	2	R1026D
2706.156	19.993	4338526	REC_WORD	10.02	n/a	JACKET	Clothing	4	1	18	[0, 0, 0]	n/a	0	1	0	n/a	n/a	0.0	0	0	0	catFR2	2	R1026D
2726.149	5.692	4370513	REC_END	n/a	n/a	n/a	n/a	-999	0	18	[0, 0, 0]	n/a	0	1	0	n/a	n/a	0.0	0	0	0	catFR2	2	R1026D
2731.841	0.0	4379620	TRIAL	n/a	n/a	n/a	n/a	-999	0	19	[0, 0, 0]	n/a	0	1	0	n/a	n/a	0.0	0	0	0	catFR2	2	R1026D
2731.841	10.0	4379620	COUNTDOWN_START	n/a	n/a	n/a	n/a	-999	0	19	[0, 0, 0]	n/a	0	1	0	n/a	n/a	0.0	0	0	0	catFR2	2	R1026D
2742.269	0.008	4396304	COUNTDOWN_END	n/a	n/a	n/a	n/a	-999	0	19	[0, 0, 0]	n/a	0	1	0	n/a	n/a	0.0	0	0	0	catFR2	2	R1026D
2742.277	1.6	4396317	ORIENT	n/a	n/a	n/a	n/a	-999	0	19	[0, 0, 0]	n/a	0	1	0	n/a	n/a	0.0	0	0	0	catFR2	2	R1026D
2745.91	1.6	4402129	WORD	n/a	wordpools/wordpool_categorized_EN.txt	WOODS	Landscapes	1	1	19	[0, 0, 0]	n/a	0	1	0	n/a	n/a	0.0	0	0	0	catFR2	2	R1026D
2748.361	1.6	4406051	WORD	n/a	wordpools/wordpool_categorized_EN.txt	CREEK	Landscapes	2	1	19	[0, 0, 0]	n/a	0	1	0	n/a	n/a	0.0	0	0	0	catFR2	2	R1026D
2750.567	4.6	4409580	STIM_ON	n/a	n/a	n/a	n/a	-999	0	19	[0, 0, 0]	n/a	1	1	4600	LOTD3	LOTD4	500.0	50	230	300	catFR2	2	R1026D
2750.778	1.6	4409918	WORD	n/a	wordpools/wordpool_categorized_EN.txt	BIRCH	Trees	3	1	19	[0, 0, 0]	n/a	1	1	4600	LOTD3	LOTD4	500.0	50	230	300	catFR2	2	R1026D
2753.279	1.6	4413919	WORD	n/a	wordpools/wordpool_categorized_EN.txt	WALNUT	Trees	4	0	19	[0, 0, 0]	n/a	1	1	4600	LOTD3	LOTD4	500.0	50	230	300	catFR2	2	R1026D
2755.729	1.6	4417839	WORD	n/a	wordpools/wordpool_categorized_EN.txt	STRAWBERRY	Fruit	5	0	19	[0, 0, 0]	n/a	0	1	0	n/a	n/a	0.0	0	0	0	catFR2	2	R1026D
2758.263	1.6	4421893	WORD	n/a	wordpools/wordpool_categorized_EN.txt	BANANA	Fruit	6	1	19	[0, 0, 0]	n/a	0	1	0	n/a	n/a	0.0	0	0	0	catFR2	2	R1026D
2760.615	4.6	4425656	STIM_ON	n/a	n/a	n/a	n/a	-999	0	19	[0, 0, 0]	n/a	1	1	4600	LOTD3	LOTD4	500.0	50	230	300	catFR2	2	R1026D
2760.829	1.6	4425998	WORD	n/a	wordpools/wordpool_categorized_EN.txt	CEDAR	Trees	7	0	19	[0, 0, 0]	n/a	1	1	4600	LOTD3	LOTD4	500.0	50	230	300	catFR2	2	R1026D
2763.331	1.6	4430001	WORD	n/a	wordpools/wordpool_categorized_EN.txt	ELM	Trees	8	0	19	[0, 0, 0]	n/a	1	1	4600	LOTD3	LOTD4	500.0	50	230	300	catFR2	2	R1026D
2765.814	1.6	4433974	WORD	n/a	wordpools/wordpool_categorized_EN.txt	MOUNTAIN	Landscapes	9	0	19	[0, 0, 0]	n/a	0	1	0	n/a	n/a	0.0	0	0	0	catFR2	2	R1026D
2768.348	1.6	4438028	WORD	n/a	wordpools/wordpool_categorized_EN.txt	ISLAND	Landscapes	10	0	19	[0, 0, 0]	n/a	0	1	0	n/a	n/a	0.0	0	0	0	catFR2	2	R1026D
2770.54	4.6	4441535	STIM_ON	n/a	n/a	n/a	n/a	-999	0	19	[0, 0, 0]	n/a	1	1	4600	LOTD3	LOTD4	500.0	50	230	300	catFR2	2	R1026D
2770.748	1.6	4441868	WORD	n/a	wordpools/wordpool_categorized_EN.txt	CHERRY	Fruit	11	1	19	[0, 0, 0]	n/a	1	1	4600	LOTD3	LOTD4	500.0	50	230	300	catFR2	2	R1026D
2773.333	1.6	4446004	WORD	n/a	wordpools/wordpool_categorized_EN.txt	PLUM	Fruit	12	0	19	[0, 0, 0]	n/a	1	1	4600	LOTD3	LOTD4	500.0	50	230	300	catFR2	2	R1026D
2774.949	0.001	4448589	DISTRACT_START	n/a	n/a	n/a	n/a	-999	0	19	[0, 0, 0]	n/a	0	1	0	n/a	n/a	0.0	0	0	0	catFR2	2	R1026D
2774.95	0.015	4448591	START	n/a	n/a	n/a	n/a	-999	0	19	[-999, -999, -999]	n/a	0	1	0	n/a	n/a	0.0	0	0	0	catFR2	2	R1026D
2774.965	5.635	4448615	PROB	5.608	n/a	n/a	n/a	-999	0	19	[4, 2, 6]	12	0	1	0	n/a	n/a	0.0	0	0	0	catFR2	2	R1026D
2780.6	4.484	4457630	PROB	4.461	n/a	n/a	n/a	-999	0	19	[7, 9, 4]	20	0	1	0	n/a	n/a	0.0	0	0	0	catFR2	2	R1026D
2785.084	10.346	4464804	PROB	10.346	n/a	n/a	n/a	-999	0	19	[9, 8, 6]	23	0	1	0	n/a	n/a	0.0	0	0	0	catFR2	2	R1026D
2795.43	0.007	4481357	STOP	n/a	n/a	n/a	n/a	-999	0	19	[-999, -999, -999]	n/a	0	1	0	n/a	n/a	0.0	0	0	0	catFR2	2	R1026D
2795.437	1.183	4481368	DISTRACT_END	n/a	n/a	n/a	n/a	-999	0	19	[0, 0, 0]	n/a	0	1	0	n/a	n/a	0.0	0	0	0	catFR2	2	R1026D
2796.62	2.069	4483261	REC_START	n/a	n/a	n/a	n/a	-999	0	19	[0, 0, 0]	n/a	0	1	0	n/a	n/a	0.0	0	0	0	catFR2	2	R1026D
2798.689	0.953	4486571	REC_WORD	2.069	n/a	WOODS	Landscapes	1	1	19	[0, 0, 0]	n/a	0	1	0	n/a	n/a	0.0	0	0	0	catFR2	2	R1026D
2799.642	4.246	4488096	REC_WORD	3.022	n/a	CREEK	Landscapes	2	1	19	[0, 0, 0]	n/a	0	1	0	n/a	n/a	0.0	0	0	0	catFR2	2	R1026D
2803.888	3.157	4494889	REC_WORD	7.268	n/a	BIRCH	Trees	3	1	19	[0, 0, 0]	n/a	0	1	0	n/a	n/a	0.0	0	0	0	catFR2	2	R1026D
2807.045	3.432	4499940	REC_WORD	10.425	n/a	EVERGREEN	n/a	-999	0	19	[0, 0, 0]	n/a	0	1	0	n/a	n/a	0.0	0	0	0	catFR2	2	R1026D
2810.477	1.934	4505431	REC_WORD	13.857	n/a	GREEN	n/a	-999	0	19	[0, 0, 0]	n/a	0	1	0	n/a	n/a	0.0	0	0	0	catFR2	2	R1026D
2812.411	1.703	4508525	REC_WORD	15.791	n/a	CHERRY	Fruit	11	1	19	[0, 0, 0]	n/a	0	1	0	n/a	n/a	0.0	0	0	0	catFR2	2	R1026D
2814.114	12.519	4511250	REC_WORD	17.494	n/a	BANANA	Fruit	6	1	19	[0, 0, 0]	n/a	0	1	0	n/a	n/a	0.0	0	0	0	catFR2	2	R1026D
2826.633	3.993	4531280	REC_END	n/a	n/a	n/a	n/a	-999	0	19	[0, 0, 0]	n/a	0	1	0	n/a	n/a	0.0	0	0	0	catFR2	2	R1026D
2830.626	0.0	4537668	TRIAL	n/a	n/a	n/a	n/a	-999	0	20	[0, 0, 0]	n/a	0	1	0	n/a	n/a	0.0	0	0	0	catFR2	2	R1026D
2830.626	10.0	4537668	COUNTDOWN_START	n/a	n/a	n/a	n/a	-999	0	20	[0, 0, 0]	n/a	0	1	0	n/a	n/a	0.0	0	0	0	catFR2	2	R1026D
2841.054	0.007	4554352	COUNTDOWN_END	n/a	n/a	n/a	n/a	-999	0	20	[0, 0, 0]	n/a	0	1	0	n/a	n/a	0.0	0	0	0	catFR2	2	R1026D
2841.061	1.6	4554363	ORIENT	n/a	n/a	n/a	n/a	-999	0	20	[0, 0, 0]	n/a	0	1	0	n/a	n/a	0.0	0	0	0	catFR2	2	R1026D
2844.595	1.6	4560017	WORD	n/a	wordpools/wordpool_categorized_EN.txt	BOAT	Vehicles	1	0	20	[0, 0, 0]	n/a	0	1	0	n/a	n/a	0.0	0	0	0	catFR2	2	R1026D
2847.079	1.6	4563991	WORD	n/a	wordpools/wordpool_categorized_EN.txt	SCOOTER	Vehicles	2	0	20	[0, 0, 0]	n/a	0	1	0	n/a	n/a	0.0	0	0	0	catFR2	2	R1026D
2849.496	4.6	4567858	STIM_ON	n/a	n/a	n/a	n/a	-999	0	20	[0, 0, 0]	n/a	1	1	4600	LOTD3	LOTD4	500.0	50	230	300	catFR2	2	R1026D
2849.712	1.6	4568204	WORD	n/a	wordpools/wordpool_categorized_EN.txt	HUMIDITY	Weather	3	1	20	[0, 0, 0]	n/a	1	1	4600	LOTD3	LOTD4	500.0	50	230	300	catFR2	2	R1026D
2852.28	1.6	4572313	WORD	n/a	wordpools/wordpool_categorized_EN.txt	THUNDER	Weather	4	0	20	[0, 0, 0]	n/a	1	1	4600	LOTD3	LOTD4	500.0	50	230	300	catFR2	2	R1026D
2854.897	1.6	4576500	WORD	n/a	wordpools/wordpool_categorized_EN.txt	COFFEE	Beverages	5	0	20	[0, 0, 0]	n/a	0	1	0	n/a	n/a	0.0	0	0	0	catFR2	2	R1026D
2857.315	1.6	4580368	WORD	n/a	wordpools/wordpool_categorized_EN.txt	MILK	Beverages	6	0	20	[0, 0, 0]	n/a	0	1	0	n/a	n/a	0.0	0	0	0	catFR2	2	R1026D
2859.612	4.6	4584043	STIM_ON	n/a	n/a	n/a	n/a	-999	0	20	[0, 0, 0]	n/a	1	1	4600	LOTD3	LOTD4	500.0	50	230	300	catFR2	2	R1026D
2859.814	1.6	4584366	WORD	n/a	wordpools/wordpool_categorized_EN.txt	WIND	Weather	7	0	20	[0, 0, 0]	n/a	1	1	4600	LOTD3	LOTD4	500.0	50	230	300	catFR2	2	R1026D
2862.382	1.6	4588475	WORD	n/a	wordpools/wordpool_categorized_EN.txt	THUNDERSTORM	Weather	8	1	20	[0, 0, 0]	n/a	1	1	4600	LOTD3	LOTD4	500.0	50	230	300	catFR2	2	R1026D
2864.982	1.6	4592635	WORD	n/a	wordpools/wordpool_categorized_EN.txt	JEEP	Vehicles	9	1	20	[0, 0, 0]	n/a	0	1	0	n/a	n/a	0.0	0	0	0	catFR2	2	R1026D
2867.599	1.6	4596822	WORD	n/a	wordpools/wordpool_categorized_EN.txt	MOTORCYCLE	Vehicles	10	0	20	[0, 0, 0]	n/a	0	1	0	n/a	n/a	0.0	0	0	0	catFR2	2	R1026D
2869.78	4.6	4600311	STIM_ON	n/a	n/a	n/a	n/a	-999	0	20	[0, 0, 0]	n/a	1	1	4600	LOTD3	LOTD4	500.0	50	230	300	catFR2	2	R1026D
2869.983	1.6	4600636	WORD	n/a	wordpools/wordpool_categorized_EN.txt	BEER	Beverages	11	0	20	[0, 0, 0]	n/a	1	1	4600	LOTD3	LOTD4	500.0	50	230	300	catFR2	2	R1026D
2872.401	1.6	4604505	WORD	n/a	wordpools/wordpool_categorized_EN.txt	COLA	Beverages	12	0	20	[0, 0, 0]	n/a	1	1	4600	LOTD3	LOTD4	500.0	50	230	300	catFR2	2	R1026D
2874.017	0.001	4607090	DISTRACT_START	n/a	n/a	n/a	n/a	-999	0	20	[0, 0, 0]	n/a	0	1	0	n/a	n/a	0.0	0	0	0	catFR2	2	R1026D
2874.018	0.016	4607092	START	n/a	n/a	n/a	n/a	-999	0	20	[-999, -999, -999]	n/a	0	1	0	n/a	n/a	0.0	0	0	0	catFR2	2	R1026D
2874.034	4.185	4607117	PROB	4.164	n/a	n/a	n/a	-999	0	20	[5, 3, 8]	16	0	1	0	n/a	n/a	0.0	0	0	0	catFR2	2	R1026D
2878.219	5.316	4613813	PROB	5.283	n/a	n/a	n/a	-999	0	20	[9, 7, 3]	19	0	1	0	n/a	n/a	0.0	0	0	0	catFR2	2	R1026D
2883.535	4.468	4622318	PROB	4.446	n/a	n/a	n/a	-999	0	20	[1, 4, 8]	13	0	1	0	n/a	n/a	0.0	0	0	0	catFR2	2	R1026D
2888.003	13.179	4629467	PROB	13.179	n/a	n/a	n/a	-999	0	20	[8, 6, 4]	18	0	1	0	n/a	n/a	0.0	0	0	0	catFR2	2	R1026D
2901.182	0.008	4650552	STOP	n/a	n/a	n/a	n/a	-999	0	20	[-999, -999, -999]	n/a	0	1	0	n/a	n/a	0.0	0	0	0	catFR2	2	R1026D
2901.19	1.201	4650565	DISTRACT_END	n/a	n/a	n/a	n/a	-999	0	20	[0, 0, 0]	n/a	0	1	0	n/a	n/a	0.0	0	0	0	catFR2	2	R1026D
2902.391	18.9	4652486	REC_START	n/a	n/a	n/a	n/a	-999	0	20	[0, 0, 0]	n/a	0	1	0	n/a	n/a	0.0	0	0	0	catFR2	2	R1026D
2921.291	1.104	4682725	REC_WORD	18.9	n/a	WOODS	n/a	-999	0	20	[0, 0, 0]	n/a	0	1	0	n/a	n/a	0.0	0	0	0	catFR2	2	R1026D
2922.395	2.638	4684491	REC_WORD	20.004	n/a	CREEK	n/a	-999	0	20	[0, 0, 0]	n/a	0	1	0	n/a	n/a	0.0	0	0	0	catFR2	2	R1026D
2925.033	1.904	4688712	REC_WORD	22.642	n/a	HUMIDITY	Weather	3	1	20	[0, 0, 0]	n/a	0	1	0	n/a	n/a	0.0	0	0	0	catFR2	2	R1026D
2926.937	4.883	4691758	REC_WORD	24.546	n/a	THUNDERSTORM	Weather	8	1	20	[0, 0, 0]	n/a	0	1	0	n/a	n/a	0.0	0	0	0	catFR2	2	R1026D
2931.82	0.584	4699570	REC_WORD	29.429	n/a	JEEP	Vehicles	9	1	20	[0, 0, 0]	n/a	0	1	0	n/a	n/a	0.0	0	0	0	catFR2	2	R1026D
2932.404	2.357	4700505	REC_END	n/a	n/a	n/a	n/a	-999	0	20	[0, 0, 0]	n/a	0	1	0	n/a	n/a	0.0	0	0	0	catFR2	2	R1026D
2934.761	10.0	4704276	COUNTDOWN_START	n/a	n/a	n/a	n/a	-999	0	21	[0, 0, 0]	n/a	0	1	0	n/a	n/a	0.0	0	0	0	catFR2	2	R1026D
2934.762	10.427	4704277	TRIAL	n/a	n/a	n/a	n/a	-999	0	21	[0, 0, 0]	n/a	0	1	0	n/a	n/a	0.0	0	0	0	catFR2	2	R1026D
2945.189	0.009	4720960	COUNTDOWN_END	n/a	n/a	n/a	n/a	-999	0	21	[0, 0, 0]	n/a	0	1	0	n/a	n/a	0.0	0	0	0	catFR2	2	R1026D
2945.198	1.6	4720974	ORIENT	n/a	n/a	n/a	n/a	-999	0	21	[0, 0, 0]	n/a	0	1	0	n/a	n/a	0.0	0	0	0	catFR2	2	R1026D
2948.76	4.6	4726673	STIM_ON	n/a	n/a	n/a	n/a	-999	0	21	[0, 0, 0]	n/a	1	1	4600	LOTD3	LOTD4	500.0	50	230	300	catFR2	2	R1026D
2948.964	1.6	4726999	WORD	n/a	wordpools/wordpool_categorized_EN.txt	HAND	BodyParts	1	1	21	[0, 0, 0]	n/a	1	1	4600	LOTD3	LOTD4	500.0	50	230	300	catFR2	2	R1026D
2951.349	1.6	4730815	WORD	n/a	wordpools/wordpool_categorized_EN.txt	ARM	BodyParts	2	1	21	[0, 0, 0]	n/a	1	1	4600	LOTD3	LOTD4	500.0	50	230	300	catFR2	2	R1026D
2953.898	1.6	4734893	WORD	n/a	wordpools/wordpool_categorized_EN.txt	GRATER	KitchenTools	3	0	21	[0, 0, 0]	n/a	0	1	0	n/a	n/a	0.0	0	0	0	catFR2	2	R1026D
2956.3	1.6	4738736	WORD	n/a	wordpools/wordpool_categorized_EN.txt	PEELER	KitchenTools	4	0	21	[0, 0, 0]	n/a	0	1	0	n/a	n/a	0.0	0	0	0	catFR2	2	R1026D
2958.603	4.6	4742421	STIM_ON	n/a	n/a	n/a	n/a	-999	0	21	[0, 0, 0]	n/a	1	1	4600	LOTD3	LOTD4	500.0	50	230	300	catFR2	2	R1026D
2958.816	1.6	4742762	WORD	n/a	wordpools/wordpool_categorized_EN.txt	SCANNER	Electronics	5	0	21	[0, 0, 0]	n/a	1	1	4600	LOTD3	LOTD4	500.0	50	230	300	catFR2	2	R1026D
2961.367	1.6	4746843	WORD	n/a	wordpools/wordpool_categorized_EN.txt	PRINTER	Electronics	6	0	21	[0, 0, 0]	n/a	1	1	4600	LOTD3	LOTD4	500.0	50	230	300	catFR2	2	R1026D
2963.983	1.6	4751029	WORD	n/a	wordpools/wordpool_categorized_EN.txt	LADLE	KitchenTools	7	0	21	[0, 0, 0]	n/a	0	1	0	n/a	n/a	0.0	0	0	0	catFR2	2	R1026D
2966.435	1.6	4754952	WORD	n/a	wordpools/wordpool_categorized_EN.txt	CORKSCREW	KitchenTools	8	0	21	[0, 0, 0]	n/a	0	1	0	n/a	n/a	0.0	0	0	0	catFR2	2	R1026D
2968.679	4.6	4758542	STIM_ON	n/a	n/a	n/a	n/a	-999	0	21	[0, 0, 0]	n/a	1	1	4600	LOTD3	LOTD4	500.0	50	230	300	catFR2	2	R1026D
2968.884	1.6	4758870	WORD	n/a	wordpools/wordpool_categorized_EN.txt	ELBOW	BodyParts	9	0	21	[0, 0, 0]	n/a	1	1	4600	LOTD3	LOTD4	500.0	50	230	300	catFR2	2	R1026D
2971.369	1.6	4762846	WORD	n/a	wordpools/wordpool_categorized_EN.txt	NOSE	BodyParts	10	0	21	[0, 0, 0]	n/a	1	1	4600	LOTD3	LOTD4	500.0	50	230	300	catFR2	2	R1026D
2973.885	1.6	4766871	WORD	n/a	wordpools/wordpool_categorized_EN.txt	HEADPHONES	Electronics	11	0	21	[0, 0, 0]	n/a	0	1	0	n/a	n/a	0.0	0	0	0	catFR2	2	R1026D
2976.47	1.6	4771007	WORD	n/a	wordpools/wordpool_categorized_EN.txt	TELEVISION	Electronics	12	0	21	[0, 0, 0]	n/a	0	1	0	n/a	n/a	0.0	0	0	0	catFR2	2	R1026D
2978.086	0.001	4773592	DISTRACT_START	n/a	n/a	n/a	n/a	-999	0	21	[0, 0, 0]	n/a	0	1	0	n/a	n/a	0.0	0	0	0	catFR2	2	R1026D
2978.087	0.016	4773594	START	n/a	n/a	n/a	n/a	-999	0	21	[-999, -999, -999]	n/a	0	1	0	n/a	n/a	0.0	0	0	0	catFR2	2	R1026D
2978.103	8.419	4773619	PROB	8.383	n/a	n/a	n/a	-999	0	21	[7, 9, 8]	24	0	1	0	n/a	n/a	0.0	0	0	0	catFR2	2	R1026D
2986.522	3.033	4787089	PROB	3.004	n/a	n/a	n/a	-999	0	21	[9, 1, 9]	19	0	1	0	n/a	n/a	0.0	0	0	0	catFR2	2	R1026D
2989.555	2.751	4791942	PROB	2.723	n/a	n/a	n/a	-999	0	21	[6, 6, 1]	13	0	1	0	n/a	n/a	0.0	0	0	0	catFR2	2	R1026D
2992.306	4.918	4796343	PROB	4.884	n/a	n/a	n/a	-999	0	21	[9, 2, 8]	19	0	1	0	n/a	n/a	0.0	0	0	0	catFR2	2	R1026D
2997.224	4.509	4804211	PROB	4.509	n/a	n/a	n/a	-999	0	21	[9, 4, 1]	14	0	1	0	n/a	n/a	0.0	0	0	0	catFR2	2	R1026D
3001.733	0.007	4811426	STOP	n/a	n/a	n/a	n/a	-999	0	21	[-999, -999, -999]	n/a	0	1	0	n/a	n/a	0.0	0	0	0	catFR2	2	R1026D
3001.74	1.201	4811437	DISTRACT_END	n/a	n/a	n/a	n/a	-999	0	21	[0, 0, 0]	n/a	0	1	0	n/a	n/a	0.0	0	0	0	catFR2	2	R1026D
3002.941	3.242	4813358	REC_START	n/a	n/a	n/a	n/a	-999	0	21	[0, 0, 0]	n/a	0	1	0	n/a	n/a	0.0	0	0	0	catFR2	2	R1026D
3006.183	1.707	4818545	REC_WORD	3.242	n/a	HAND	BodyParts	1	1	21	[0, 0, 0]	n/a	0	1	0	n/a	n/a	0.0	0	0	0	catFR2	2	R1026D
3007.89	25.069	4821276	REC_WORD	4.949	n/a	ARM	BodyParts	2	1	21	[0, 0, 0]	n/a	0	1	0	n/a	n/a	0.0	0	0	0	catFR2	2	R1026D
3032.959	2.422	4861385	REC_END	n/a	n/a	n/a	n/a	-999	0	21	[0, 0, 0]	n/a	0	1	0	n/a	n/a	0.0	0	0	0	catFR2	2	R1026D
3035.381	0.0	4865260	TRIAL	n/a	n/a	n/a	n/a	-999	0	22	[0, 0, 0]	n/a	0	1	0	n/a	n/a	0.0	0	0	0	catFR2	2	R1026D
3035.381	10.0	4865260	COUNTDOWN_START	n/a	n/a	n/a	n/a	-999	0	22	[0, 0, 0]	n/a	0	1	0	n/a	n/a	0.0	0	0	0	catFR2	2	R1026D
3045.809	0.006	4881944	COUNTDOWN_END	n/a	n/a	n/a	n/a	-999	0	22	[0, 0, 0]	n/a	0	1	0	n/a	n/a	0.0	0	0	0	catFR2	2	R1026D
3045.815	1.6	4881953	ORIENT	n/a	n/a	n/a	n/a	-999	0	22	[0, 0, 0]	n/a	0	1	0	n/a	n/a	0.0	0	0	0	catFR2	2	R1026D
3049.208	4.6	4887382	STIM_ON	n/a	n/a	n/a	n/a	-999	0	22	[0, 0, 0]	n/a	1	1	4600	LOTD3	LOTD4	500.0	50	230	300	catFR2	2	R1026D
3049.417	1.6	4887716	WORD	n/a	wordpools/wordpool_categorized_EN.txt	BED	Furniture	1	0	22	[0, 0, 0]	n/a	1	1	4600	LOTD3	LOTD4	500.0	50	230	300	catFR2	2	R1026D
3051.966	1.6	4891794	WORD	n/a	wordpools/wordpool_categorized_EN.txt	SHELF	Furniture	2	0	22	[0, 0, 0]	n/a	1	1	4600	LOTD3	LOTD4	500.0	50	230	300	catFR2	2	R1026D
3054.501	1.6	4895850	WORD	n/a	wordpools/wordpool_categorized_EN.txt	BANJO	Instruments	3	1	22	[0, 0, 0]	n/a	0	1	0	n/a	n/a	0.0	0	0	0	catFR2	2	R1026D
3056.884	1.6	4899663	WORD	n/a	wordpools/wordpool_categorized_EN.txt	VIOLIN	Instruments	4	0	22	[0, 0, 0]	n/a	0	1	0	n/a	n/a	0.0	0	0	0	catFR2	2	R1026D
3059.13	4.6	4903256	STIM_ON	n/a	n/a	n/a	n/a	-999	0	22	[0, 0, 0]	n/a	1	1	4600	LOTD3	LOTD4	500.0	50	230	300	catFR2	2	R1026D
3059.335	1.6	4903584	WORD	n/a	wordpools/wordpool_categorized_EN.txt	WATER	Beverages	5	1	22	[0, 0, 0]	n/a	1	1	4600	LOTD3	LOTD4	500.0	50	230	300	catFR2	2	R1026D
3061.951	1.6	4907770	WORD	n/a	wordpools/wordpool_categorized_EN.txt	JUICE	Beverages	6	1	22	[0, 0, 0]	n/a	1	1	4600	LOTD3	LOTD4	500.0	50	230	300	catFR2	2	R1026D
3064.486	1.6	4911825	WORD	n/a	wordpools/wordpool_categorized_EN.txt	CHAIR	Furniture	7	1	22	[0, 0, 0]	n/a	0	1	0	n/a	n/a	0.0	0	0	0	catFR2	2	R1026D
3067.102	1.6	4916011	WORD	n/a	wordpools/wordpool_categorized_EN.txt	DRESSER	Furniture	8	0	22	[0, 0, 0]	n/a	0	1	0	n/a	n/a	0.0	0	0	0	catFR2	2	R1026D
3069.339	4.6	4919590	STIM_ON	n/a	n/a	n/a	n/a	-999	0	22	[0, 0, 0]	n/a	1	1	4600	LOTD3	LOTD4	500.0	50	230	300	catFR2	2	R1026D
3069.553	1.6	4919932	WORD	n/a	wordpools/wordpool_categorized_EN.txt	WINE	Beverages	9	1	22	[0, 0, 0]	n/a	1	1	4600	LOTD3	LOTD4	500.0	50	230	300	catFR2	2	R1026D
3072.003	1.6	4923852	WORD	n/a	wordpools/wordpool_categorized_EN.txt	RUM	Beverages	10	0	22	[0, 0, 0]	n/a	1	1	4600	LOTD3	LOTD4	500.0	50	230	300	catFR2	2	R1026D
3074.604	1.6	4928013	WORD	n/a	wordpools/wordpool_categorized_EN.txt	ORGAN	Instruments	11	0	22	[0, 0, 0]	n/a	0	1	0	n/a	n/a	0.0	0	0	0	catFR2	2	R1026D
3077.205	1.6	4932175	WORD	n/a	wordpools/wordpool_categorized_EN.txt	PIANO	Instruments	12	0	22	[0, 0, 0]	n/a	0	1	0	n/a	n/a	0.0	0	0	0	catFR2	2	R1026D
3078.821	0.001	4934760	DISTRACT_START	n/a	n/a	n/a	n/a	-999	0	22	[0, 0, 0]	n/a	0	1	0	n/a	n/a	0.0	0	0	0	catFR2	2	R1026D
3078.822	0.016	4934762	START	n/a	n/a	n/a	n/a	-999	0	22	[-999, -999, -999]	n/a	0	1	0	n/a	n/a	0.0	0	0	0	catFR2	2	R1026D
3078.838	9.669	4934787	PROB	9.648	n/a	n/a	n/a	-999	0	22	[9, 8, 8]	25	0	1	0	n/a	n/a	0.0	0	0	0	catFR2	2	R1026D
3088.507	2.751	4950257	PROB	2.723	n/a	n/a	n/a	-999	0	22	[2, 1, 6]	9	0	1	0	n/a	n/a	0.0	0	0	0	catFR2	2	R1026D
3091.258	3.15	4954658	PROB	3.116	n/a	n/a	n/a	-999	0	22	[1, 6, 6]	7	0	1	0	n/a	n/a	0.0	0	0	0	catFR2	2	R1026D
3094.408	3.851	4959698	PROB	3.83	n/a	n/a	n/a	-999	0	22	[3, 3, 5]	11	0	1	0	n/a	n/a	0.0	0	0	0	catFR2	2	R1026D
3098.259	5.442	4965859	PROB	5.442	n/a	n/a	n/a	-999	0	22	[8, 4, 8]	20	0	1	0	n/a	n/a	0.0	0	0	0	catFR2	2	R1026D
3103.701	0.008	4974566	STOP	n/a	n/a	n/a	n/a	-999	0	22	[-999, -999, -999]	n/a	0	1	0	n/a	n/a	0.0	0	0	0	catFR2	2	R1026D
3103.709	1.101	4974579	DISTRACT_END	n/a	n/a	n/a	n/a	-999	0	22	[0, 0, 0]	n/a	0	1	0	n/a	n/a	0.0	0	0	0	catFR2	2	R1026D
3104.81	4.507	4976341	REC_START	n/a	n/a	n/a	n/a	-999	0	22	[0, 0, 0]	n/a	0	1	0	n/a	n/a	0.0	0	0	0	catFR2	2	R1026D
3109.317	1.073	4983551	REC_WORD	4.507	n/a	WATER	Beverages	5	1	22	[0, 0, 0]	n/a	0	1	0	n/a	n/a	0.0	0	0	0	catFR2	2	R1026D
3110.39	3.172	4985268	REC_WORD	5.58	n/a	JUICE	Beverages	6	1	22	[0, 0, 0]	n/a	0	1	0	n/a	n/a	0.0	0	0	0	catFR2	2	R1026D
3113.562	1.194	4990343	REC_WORD	8.752	n/a	BANJO	Instruments	3	1	22	[0, 0, 0]	n/a	0	1	0	n/a	n/a	0.0	0	0	0	catFR2	2	R1026D
3114.756	3.074	4992253	REC_WORD	9.946	n/a	DRUM	n/a	-999	0	22	[0, 0, 0]	n/a	0	1	0	n/a	n/a	0.0	0	0	0	catFR2	2	R1026D
3117.83	7.403	4997171	REC_WORD	13.02	n/a	WINE	Beverages	9	1	22	[0, 0, 0]	n/a	0	1	0	n/a	n/a	0.0	0	0	0	catFR2	2	R1026D
3125.233	9.59	5009016	REC_WORD	20.423	n/a	CHAIR	Furniture	7	1	22	[0, 0, 0]	n/a	0	1	0	n/a	n/a	0.0	0	0	0	catFR2	2	R1026D
3134.823	2.075	5024359	REC_END	n/a	n/a	n/a	n/a	-999	0	22	[0, 0, 0]	n/a	0	1	0	n/a	n/a	0.0	0	0	0	catFR2	2	R1026D
3136.898	10.0	5027679	COUNTDOWN_START	n/a	n/a	n/a	n/a	-999	0	23	[0, 0, 0]	n/a	0	1	0	n/a	n/a	0.0	0	0	0	catFR2	2	R1026D
3136.899	10.427	5027680	TRIAL	n/a	n/a	n/a	n/a	-999	0	23	[0, 0, 0]	n/a	0	1	0	n/a	n/a	0.0	0	0	0	catFR2	2	R1026D
3147.326	0.009	5044363	COUNTDOWN_END	n/a	n/a	n/a	n/a	-999	0	23	[0, 0, 0]	n/a	0	1	0	n/a	n/a	0.0	0	0	0	catFR2	2	R1026D
3147.335	1.6	5044377	ORIENT	n/a	n/a	n/a	n/a	-999	0	23	[0, 0, 0]	n/a	0	1	0	n/a	n/a	0.0	0	0	0	catFR2	2	R1026D
3150.985	1.6	5050217	WORD	n/a	wordpools/wordpool_categorized_EN.txt	BEAR	Zoo	1	1	23	[0, 0, 0]	n/a	0	1	0	n/a	n/a	0.0	0	0	0	catFR2	2	R1026D
3153.469	1.6	5054191	WORD	n/a	wordpools/wordpool_categorized_EN.txt	PANDA	Zoo	2	1	23	[0, 0, 0]	n/a	0	1	0	n/a	n/a	0.0	0	0	0	catFR2	2	R1026D
3155.693	4.6	5057749	STIM_ON	n/a	n/a	n/a	n/a	-999	0	23	[0, 0, 0]	n/a	1	1	4600	LOTD3	LOTD4	500.0	50	230	300	catFR2	2	R1026D
3155.902	1.6	5058084	WORD	n/a	wordpools/wordpool_categorized_EN.txt	LEMON	Fruit	3	1	23	[0, 0, 0]	n/a	1	1	4600	LOTD3	LOTD4	500.0	50	230	300	catFR2	2	R1026D
3158.287	1.6	5061899	WORD	n/a	wordpools/wordpool_categorized_EN.txt	ORANGE	Fruit	4	1	23	[0, 0, 0]	n/a	1	1	4600	LOTD3	LOTD4	500.0	50	230	300	catFR2	2	R1026D
3160.853	1.6	5066005	WORD	n/a	wordpools/wordpool_categorized_EN.txt	EYE	BodyParts	5	0	23	[0, 0, 0]	n/a	0	1	0	n/a	n/a	0.0	0	0	0	catFR2	2	R1026D
3163.288	1.6	5069901	WORD	n/a	wordpools/wordpool_categorized_EN.txt	LEG	BodyParts	6	0	23	[0, 0, 0]	n/a	0	1	0	n/a	n/a	0.0	0	0	0	catFR2	2	R1026D
3165.601	4.6	5073601	STIM_ON	n/a	n/a	n/a	n/a	-999	0	23	[0, 0, 0]	n/a	1	1	4600	LOTD3	LOTD4	500.0	50	230	300	catFR2	2	R1026D
3165.804	1.6	5073926	WORD	n/a	wordpools/wordpool_categorized_EN.txt	MONKEY	Zoo	7	0	23	[0, 0, 0]	n/a	1	1	4600	LOTD3	LOTD4	500.0	50	230	300	catFR2	2	R1026D
3168.339	1.6	5077982	WORD	n/a	wordpools/wordpool_categorized_EN.txt	CHEETAH	Zoo	8	0	23	[0, 0, 0]	n/a	1	1	4600	LOTD3	LOTD4	500.0	50	230	300	catFR2	2	R1026D
3170.821	1.6	5081953	WORD	n/a	wordpools/wordpool_categorized_EN.txt	EAR	BodyParts	9	0	23	[0, 0, 0]	n/a	0	1	0	n/a	n/a	0.0	0	0	0	catFR2	2	R1026D
3173.323	1.6	5085956	WORD	n/a	wordpools/wordpool_categorized_EN.txt	HEAD	BodyParts	10	0	23	[0, 0, 0]	n/a	0	1	0	n/a	n/a	0.0	0	0	0	catFR2	2	R1026D
3175.572	4.6	5089554	STIM_ON	n/a	n/a	n/a	n/a	-999	0	23	[0, 0, 0]	n/a	1	1	4600	LOTD3	LOTD4	500.0	50	230	300	catFR2	2	R1026D
3175.789	1.6	5089901	WORD	n/a	wordpools/wordpool_categorized_EN.txt	PEACH	Fruit	11	0	23	[0, 0, 0]	n/a	1	1	4600	LOTD3	LOTD4	500.0	50	230	300	catFR2	2	R1026D
3178.207	1.6	5093770	WORD	n/a	wordpools/wordpool_categorized_EN.txt	GRAPE	Fruit	12	0	23	[0, 0, 0]	n/a	1	1	4600	LOTD3	LOTD4	500.0	50	230	300	catFR2	2	R1026D
3179.823	0.001	5096355	DISTRACT_START	n/a	n/a	n/a	n/a	-999	0	23	[0, 0, 0]	n/a	0	1	0	n/a	n/a	0.0	0	0	0	catFR2	2	R1026D
3179.824	0.016	5096357	START	n/a	n/a	n/a	n/a	-999	0	23	[-999, -999, -999]	n/a	0	1	0	n/a	n/a	0.0	0	0	0	catFR2	2	R1026D
3179.84	4.701	5096383	PROB	4.678	n/a	n/a	n/a	-999	0	23	[5, 6, 4]	15	0	1	0	n/a	n/a	0.0	0	0	0	catFR2	2	R1026D
3184.541	3.718	5103904	PROB	3.689	n/a	n/a	n/a	-999	0	23	[2, 5, 3]	10	0	1	0	n/a	n/a	0.0	0	0	0	catFR2	2	R1026D
3188.259	3.833	5109852	PROB	3.802	n/a	n/a	n/a	-999	0	23	[3, 9, 3]	15	0	1	0	n/a	n/a	0.0	0	0	0	catFR2	2	R1026D
3192.092	3.718	5115985	PROB	3.681	n/a	n/a	n/a	-999	0	23	[8, 3, 8]	19	0	1	0	n/a	n/a	0.0	0	0	0	catFR2	2	R1026D
3195.81	3.083	5121933	PROB	3.051	n/a	n/a	n/a	-999	0	23	[7, 5, 5]	17	0	1	0	n/a	n/a	0.0	0	0	0	catFR2	2	R1026D
