onset	duration	sample	trial_type	response_time	stim_file	item_name	category	serialpos	recalled	list	test	answer	stimulation	stim_list	stim_duration	anode_label	cathode_label	amplitude	pulse_freq	n_pulses	pulse_width	experiment	session	subject
0.0	39.427	46496	SESS_START	n/a	n/a	n/a	n/a	-999	0	-999	[0, 0, 0]	n/a	0	0	0	n/a	n/a	0.0	0	0	0	catFR2	0	R1026D
39.427	10.0	109576	COUNTDOWN_START	n/a	n/a	n/a	n/a	-999	0	-999	[0, 0, 0]	n/a	0	0	0	n/a	n/a	0.0	0	0	0	catFR2	0	R1026D
49.855	3.724	126260	COUNTDOWN_END	n/a	n/a	n/a	n/a	-999	0	-999	[0, 0, 0]	n/a	0	0	0	n/a	n/a	0.0	0	0	0	catFR2	0	R1026D
53.579	1.6	132218	PRACTICE_WORD	n/a	n/a	WAGON	n/a	-999	0	1	[0, 0, 0]	n/a	0	0	0	n/a	n/a	0.0	0	0	0	catFR2	0	R1026D
55.964	1.6	136034	PRACTICE_WORD	n/a	n/a	CAMEL	n/a	-999	0	2	[0, 0, 0]	n/a	0	0	0	n/a	n/a	0.0	0	0	0	catFR2	0	R1026D
58.363	1.6	139872	PRACTICE_WORD	n/a	n/a	IRON	n/a	-999	0	3	[0, 0, 0]	n/a	0	0	0	n/a	n/a	0.0	0	0	0	catFR2	0	R1026D
60.815	1.6	143795	PRACTICE_WORD	n/a	n/a	COTTON	n/a	-999	0	4	[0, 0, 0]	n/a	0	0	0	n/a	n/a	0.0	0	0	0	catFR2	0	R1026D
63.281	1.6	147740	PRACTICE_WORD	n/a	n/a	BEAM	n/a	-999	0	5	[0, 0, 0]	n/a	0	0	0	n/a	n/a	0.0	0	0	0	catFR2	0	R1026D
65.866	1.6	151876	PRACTICE_WORD	n/a	n/a	RHINO	n/a	-999	0	6	[0, 0, 0]	n/a	0	0	0	n/a	n/a	0.0	0	0	0	catFR2	0	R1026D
68.382	1.6	155902	PRACTICE_WORD	n/a	n/a	FLOOD	n/a	-999	0	7	[0, 0, 0]	n/a	0	0	0	n/a	n/a	0.0	0	0	0	catFR2	0	R1026D
70.784	1.6	159745	PRACTICE_WORD	n/a	n/a	RING	n/a	-999	0	8	[0, 0, 0]	n/a	0	0	0	n/a	n/a	0.0	0	0	0	catFR2	0	R1026D
73.266	1.6	163716	PRACTICE_WORD	n/a	n/a	ATTIC	n/a	-999	0	9	[0, 0, 0]	n/a	0	0	0	n/a	n/a	0.0	0	0	0	catFR2	0	R1026D
75.884	1.6	167904	PRACTICE_WORD	n/a	n/a	WATCH	n/a	-999	0	10	[0, 0, 0]	n/a	0	0	0	n/a	n/a	0.0	0	0	0	catFR2	0	R1026D
78.267	1.6	171717	PRACTICE_WORD	n/a	n/a	TONGUE	n/a	-999	0	11	[0, 0, 0]	n/a	0	0	0	n/a	n/a	0.0	0	0	0	catFR2	0	R1026D
80.685	1.6	175585	PRACTICE_WORD	n/a	n/a	CHEST	n/a	-999	0	12	[0, 0, 0]	n/a	0	0	0	n/a	n/a	0.0	0	0	0	catFR2	0	R1026D
82.301	0.001	178171	PRACTICE_DISTRACT_START	n/a	n/a	n/a	n/a	-999	0	-999	[0, 0, 0]	n/a	0	0	0	n/a	n/a	0.0	0	0	0	catFR2	0	R1026D
82.302	0.016	178172	START	n/a	n/a	n/a	n/a	-999	0	-1	[-999, -999, -999]	n/a	0	-999	0	n/a	n/a	0.0	0	0	0	catFR2	0	R1026D
82.318	4.834	178198	PROB	4.813	n/a	n/a	n/a	-999	0	-1	[8, 4, 1]	13	0	-999	0	n/a	n/a	0.0	0	0	0	catFR2	0	R1026D
87.152	3.785	185932	PROB	3.756	n/a	n/a	n/a	-999	0	-1	[7, 7, 8]	22	0	-999	0	n/a	n/a	0.0	0	0	0	catFR2	0	R1026D
90.937	2.934	191988	PROB	2.899	n/a	n/a	n/a	-999	0	-1	[1, 9, 1]	11	0	-999	0	n/a	n/a	0.0	0	0	0	catFR2	0	R1026D
93.871	5.951	196682	PROB	5.925	n/a	n/a	n/a	-999	0	-1	[9, 7, 8]	14	0	-999	0	n/a	n/a	0.0	0	0	0	catFR2	0	R1026D
99.822	8.381	206203	PROB	8.381	n/a	n/a	n/a	-999	0	-1	[7, 8, 9]	28	0	-999	0	n/a	n/a	0.0	0	0	0	catFR2	0	R1026D
108.203	0.02	219612	STOP	n/a	n/a	n/a	n/a	-999	0	-1	[-999, -999, -999]	n/a	0	-999	0	n/a	n/a	0.0	0	0	0	catFR2	0	R1026D
108.223	0.553	219644	PRACTICE_DISTRACT_END	n/a	n/a	n/a	n/a	-999	0	-999	[0, 0, 0]	n/a	0	0	0	n/a	n/a	0.0	0	0	0	catFR2	0	R1026D
108.776	30.514	220529	PRACTICE_REC_START	n/a	n/a	n/a	n/a	-999	0	-999	[0, 0, 0]	n/a	0	0	0	n/a	n/a	0.0	0	0	0	catFR2	0	R1026D
139.29	14.191	269349	PRACTICE_REC_END	n/a	n/a	n/a	n/a	-999	0	-999	[0, 0, 0]	n/a	0	0	0	n/a	n/a	0.0	0	0	0	catFR2	0	R1026D
153.481	0.0	292053	TRIAL	n/a	n/a	n/a	n/a	-999	0	1	[0, 0, 0]	n/a	0	0	0	n/a	n/a	0.0	0	0	0	catFR2	0	R1026D
153.481	10.0	292053	COUNTDOWN_START	n/a	n/a	n/a	n/a	-999	0	1	[0, 0, 0]	n/a	0	0	0	n/a	n/a	0.0	0	0	0	catFR2	0	R1026D
163.909	0.008	308737	COUNTDOWN_END	n/a	n/a	n/a	n/a	-999	0	1	[0, 0, 0]	n/a	0	0	0	n/a	n/a	0.0	0	0	0	catFR2	0	R1026D
163.917	1.6	308750	ORIENT	n/a	n/a	n/a	n/a	-999	0	1	[0, 0, 0]	n/a	0	0	0	n/a	n/a	0.0	0	0	0	catFR2	0	R1026D
167.5	1.6	314482	WORD	n/a	wordpools/wordpool_categorized_EN.txt	ERASER	OfficeSupplies	1	1	1	[0, 0, 0]	n/a	0	0	0	n/a	n/a	0.0	0	0	0	catFR2	0	R1026D
169.935	1.6	318378	WORD	n/a	wordpools/wordpool_categorized_EN.txt	STAPLER	OfficeSupplies	2	0	1	[0, 0, 0]	n/a	0	0	0	n/a	n/a	0.0	0	0	0	catFR2	0	R1026D
172.551	1.6	322564	WORD	n/a	wordpools/wordpool_categorized_EN.txt	DOLLHOUSE	Toys	3	0	1	[0, 0, 0]	n/a	0	0	0	n/a	n/a	0.0	0	0	0	catFR2	0	R1026D
175.152	1.6	326725	WORD	n/a	wordpools/wordpool_categorized_EN.txt	SLINKY	Toys	4	0	1	[0, 0, 0]	n/a	0	0	0	n/a	n/a	0.0	0	0	0	catFR2	0	R1026D
177.536	1.6	330539	WORD	n/a	wordpools/wordpool_categorized_EN.txt	FISH	OceanAnimals	5	0	1	[0, 0, 0]	n/a	0	0	0	n/a	n/a	0.0	0	0	0	catFR2	0	R1026D
180.17	1.6	334753	WORD	n/a	wordpools/wordpool_categorized_EN.txt	WHALE	OceanAnimals	6	1	1	[0, 0, 0]	n/a	0	0	0	n/a	n/a	0.0	0	0	0	catFR2	0	R1026D
182.671	1.6	338755	WORD	n/a	wordpools/wordpool_categorized_EN.txt	NOTEBOOK	OfficeSupplies	7	1	1	[0, 0, 0]	n/a	0	0	0	n/a	n/a	0.0	0	0	0	catFR2	0	R1026D
185.087	1.6	342620	WORD	n/a	wordpools/wordpool_categorized_EN.txt	FOLDER	OfficeSupplies	8	0	1	[0, 0, 0]	n/a	0	0	0	n/a	n/a	0.0	0	0	0	catFR2	0	R1026D
187.587	1.6	346620	WORD	n/a	wordpools/wordpool_categorized_EN.txt	OYSTER	OceanAnimals	9	1	1	[0, 0, 0]	n/a	0	0	0	n/a	n/a	0.0	0	0	0	catFR2	0	R1026D
190.205	1.6	350809	WORD	n/a	wordpools/wordpool_categorized_EN.txt	CRAB	OceanAnimals	10	1	1	[0, 0, 0]	n/a	0	0	0	n/a	n/a	0.0	0	0	0	catFR2	0	R1026D
192.638	1.6	354701	WORD	n/a	wordpools/wordpool_categorized_EN.txt	BASKETBALL	Toys	11	0	1	[0, 0, 0]	n/a	0	0	0	n/a	n/a	0.0	0	0	0	catFR2	0	R1026D
195.122	1.6	358675	WORD	n/a	wordpools/wordpool_categorized_EN.txt	BASEBALL	Toys	12	0	1	[0, 0, 0]	n/a	0	0	0	n/a	n/a	0.0	0	0	0	catFR2	0	R1026D
196.724	0.001	361239	DISTRACT_START	n/a	n/a	n/a	n/a	-999	0	1	[0, 0, 0]	n/a	0	0	0	n/a	n/a	0.0	0	0	0	catFR2	0	R1026D
196.725	0.015	361240	START	n/a	n/a	n/a	n/a	-999	0	1	[-999, -999, -999]	n/a	0	0	0	n/a	n/a	0.0	0	0	0	catFR2	0	R1026D
196.74	6.201	361264	PROB	6.168	n/a	n/a	n/a	-999	0	1	[8, 1, 9]	18	0	0	0	n/a	n/a	0.0	0	0	0	catFR2	0	R1026D
202.941	4.45	371185	PROB	4.43	n/a	n/a	n/a	-999	0	1	[5, 9, 2]	16	0	0	0	n/a	n/a	0.0	0	0	0	catFR2	0	R1026D
207.391	2.751	378305	PROB	2.716	n/a	n/a	n/a	-999	0	1	[1, 5, 5]	11	0	0	0	n/a	n/a	0.0	0	0	0	catFR2	0	R1026D
210.142	6.101	382706	PROB	6.068	n/a	n/a	n/a	-999	0	1	[1, 5, 3]	9	0	0	0	n/a	n/a	0.0	0	0	0	catFR2	0	R1026D
216.243	4.168	392467	PROB	4.168	n/a	n/a	n/a	-999	0	1	[3, 2, 9]	14	0	0	0	n/a	n/a	0.0	0	0	0	catFR2	0	R1026D
220.411	0.016	399136	STOP	n/a	n/a	n/a	n/a	-999	0	1	[-999, -999, -999]	n/a	0	0	0	n/a	n/a	0.0	0	0	0	catFR2	0	R1026D
220.427	1.167	399161	DISTRACT_END	n/a	n/a	n/a	n/a	-999	0	1	[0, 0, 0]	n/a	0	0	0	n/a	n/a	0.0	0	0	0	catFR2	0	R1026D
221.594	3.691	401029	REC_START	n/a	n/a	n/a	n/a	-999	0	1	[0, 0, 0]	n/a	0	0	0	n/a	n/a	0.0	0	0	0	catFR2	0	R1026D
225.285	1.491	406934	REC_WORD	3.691	n/a	OYSTER	OceanAnimals	9	1	1	[0, 0, 0]	n/a	0	0	0	n/a	n/a	0.0	0	0	0	catFR2	0	R1026D
226.776	1.276	409319	REC_WORD	5.182	n/a	CRAB	OceanAnimals	10	1	1	[0, 0, 0]	n/a	0	0	0	n/a	n/a	0.0	0	0	0	catFR2	0	R1026D
228.052	4.949	411361	REC_WORD	6.458	n/a	WHALE	OceanAnimals	6	1	1	[0, 0, 0]	n/a	0	0	0	n/a	n/a	0.0	0	0	0	catFR2	0	R1026D
233.001	1.346	419279	REC_WORD	11.407	n/a	PENCIL	n/a	-999	0	1	[0, 0, 0]	n/a	0	0	0	n/a	n/a	0.0	0	0	0	catFR2	0	R1026D
234.347	2.609	421432	REC_WORD	12.753	n/a	ERASER	OfficeSupplies	1	1	1	[0, 0, 0]	n/a	0	0	0	n/a	n/a	0.0	0	0	0	catFR2	0	R1026D
236.956	14.653	425607	REC_WORD	15.362	n/a	NOTEBOOK	OfficeSupplies	7	1	1	[0, 0, 0]	n/a	0	0	0	n/a	n/a	0.0	0	0	0	catFR2	0	R1026D
251.609	3.974	449050	REC_END	n/a	n/a	n/a	n/a	-999	0	1	[0, 0, 0]	n/a	0	0	0	n/a	n/a	0.0	0	0	0	catFR2	0	R1026D
255.583	0.0	455408	TRIAL	n/a	n/a	n/a	n/a	-999	0	2	[0, 0, 0]	n/a	0	1	0	n/a	n/a	0.0	0	0	0	catFR2	0	R1026D
255.583	10.0	455408	COUNTDOWN_START	n/a	n/a	n/a	n/a	-999	0	2	[0, 0, 0]	n/a	0	1	0	n/a	n/a	0.0	0	0	0	catFR2	0	R1026D
266.011	0.008	472092	COUNTDOWN_END	n/a	n/a	n/a	n/a	-999	0	2	[0, 0, 0]	n/a	0	1	0	n/a	n/a	0.0	0	0	0	catFR2	0	R1026D
266.019	1.6	472105	ORIENT	n/a	n/a	n/a	n/a	-999	0	2	[0, 0, 0]	n/a	0	1	0	n/a	n/a	0.0	0	0	0	catFR2	0	R1026D
269.5	4.6	477674	STIM_ON	n/a	n/a	n/a	n/a	-999	0	2	[0, 0, 0]	n/a	1	1	4600	LPIG9	LPIG10	1500.0	50	230	300	catFR2	0	R1026D
269.704	1.6	478001	WORD	n/a	wordpools/wordpool_categorized_EN.txt	COLA	Beverages	1	0	2	[0, 0, 0]	n/a	1	1	4600	LPIG9	LPIG10	1500.0	50	230	300	catFR2	0	R1026D
272.253	1.6	482079	WORD	n/a	wordpools/wordpool_categorized_EN.txt	WATER	Beverages	2	0	2	[0, 0, 0]	n/a	1	1	4600	LPIG9	LPIG10	1500.0	50	230	300	catFR2	0	R1026D
274.838	1.6	486215	WORD	n/a	wordpools/wordpool_categorized_EN.txt	DRESSER	Furniture	3	0	2	[0, 0, 0]	n/a	0	1	0	n/a	n/a	0.0	0	0	0	catFR2	0	R1026D
277.22	1.6	490026	WORD	n/a	wordpools/wordpool_categorized_EN.txt	BED	Furniture	4	1	2	[0, 0, 0]	n/a	0	1	0	n/a	n/a	0.0	0	0	0	catFR2	0	R1026D
279.575	4.6	493794	STIM_ON	n/a	n/a	n/a	n/a	-999	0	2	[0, 0, 0]	n/a	1	1	4600	LPIG9	LPIG10	1500.0	50	230	300	catFR2	0	R1026D
279.789	1.6	494136	WORD	n/a	wordpools/wordpool_categorized_EN.txt	FOG	Weather	5	1	2	[0, 0, 0]	n/a	1	1	4600	LPIG9	LPIG10	1500.0	50	230	300	catFR2	0	R1026D
282.405	1.6	498321	WORD	n/a	wordpools/wordpool_categorized_EN.txt	CLOUD	Weather	6	1	2	[0, 0, 0]	n/a	1	1	4600	LPIG9	LPIG10	1500.0	50	230	300	catFR2	0	R1026D
284.79	1.6	502137	WORD	n/a	wordpools/wordpool_categorized_EN.txt	BOOKCASE	Furniture	7	0	2	[0, 0, 0]	n/a	0	1	0	n/a	n/a	0.0	0	0	0	catFR2	0	R1026D
287.389	1.6	506295	WORD	n/a	wordpools/wordpool_categorized_EN.txt	NIGHTSTAND	Furniture	8	0	2	[0, 0, 0]	n/a	0	1	0	n/a	n/a	0.0	0	0	0	catFR2	0	R1026D
289.733	4.6	510046	STIM_ON	n/a	n/a	n/a	n/a	-999	0	2	[0, 0, 0]	n/a	1	1	4600	LPIG9	LPIG10	1500.0	50	230	300	catFR2	0	R1026D
289.941	1.6	510378	WORD	n/a	wordpools/wordpool_categorized_EN.txt	BEER	Beverages	9	0	2	[0, 0, 0]	n/a	1	1	4600	LPIG9	LPIG10	1500.0	50	230	300	catFR2	0	R1026D
292.54	1.6	514536	WORD	n/a	wordpools/wordpool_categorized_EN.txt	WINE	Beverages	10	0	2	[0, 0, 0]	n/a	1	1	4600	LPIG9	LPIG10	1500.0	50	230	300	catFR2	0	R1026D
295.024	1.6	518511	WORD	n/a	wordpools/wordpool_categorized_EN.txt	THUNDERSTORM	Weather	11	0	2	[0, 0, 0]	n/a	0	1	0	n/a	n/a	0.0	0	0	0	catFR2	0	R1026D
297.424	1.6	522350	WORD	n/a	wordpools/wordpool_categorized_EN.txt	TORNADO	Weather	12	0	2	[0, 0, 0]	n/a	0	1	0	n/a	n/a	0.0	0	0	0	catFR2	0	R1026D
299.041	0.001	524938	DISTRACT_START	n/a	n/a	n/a	n/a	-999	0	2	[0, 0, 0]	n/a	0	1	0	n/a	n/a	0.0	0	0	0	catFR2	0	R1026D
299.042	0.016	524939	START	n/a	n/a	n/a	n/a	-999	0	2	[-999, -999, -999]	n/a	0	1	0	n/a	n/a	0.0	0	0	0	catFR2	0	R1026D
299.058	4.484	524965	PROB	4.449	n/a	n/a	n/a	-999	0	2	[6, 5, 7]	18	0	1	0	n/a	n/a	0.0	0	0	0	catFR2	0	R1026D
303.542	3.634	532139	PROB	3.613	n/a	n/a	n/a	-999	0	2	[7, 6, 6]	19	0	1	0	n/a	n/a	0.0	0	0	0	catFR2	0	R1026D
307.176	3.051	537953	PROB	3.019	n/a	n/a	n/a	-999	0	2	[2, 2, 5]	9	0	1	0	n/a	n/a	0.0	0	0	0	catFR2	0	R1026D
310.227	5.217	542834	PROB	5.192	n/a	n/a	n/a	-999	0	2	[7, 1, 8]	17	0	1	0	n/a	n/a	0.0	0	0	0	catFR2	0	R1026D
315.444	3.435	551181	PROB	3.4	n/a	n/a	n/a	-999	0	2	[3, 1, 3]	7	0	1	0	n/a	n/a	0.0	0	0	0	catFR2	0	R1026D
318.879	3.061	556677	PROB	3.061	n/a	n/a	n/a	-999	0	2	[8, 2, 4]	14	0	1	0	n/a	n/a	0.0	0	0	0	catFR2	0	R1026D
321.94	0.007	561574	STOP	n/a	n/a	n/a	n/a	-999	0	2	[-999, -999, -999]	n/a	0	1	0	n/a	n/a	0.0	0	0	0	catFR2	0	R1026D
321.947	1.066	561585	DISTRACT_END	n/a	n/a	n/a	n/a	-999	0	2	[0, 0, 0]	n/a	0	1	0	n/a	n/a	0.0	0	0	0	catFR2	0	R1026D
323.013	8.759	563291	REC_START	n/a	n/a	n/a	n/a	-999	0	2	[0, 0, 0]	n/a	0	1	0	n/a	n/a	0.0	0	0	0	catFR2	0	R1026D
331.772	1.17	577305	REC_WORD	8.759	n/a	BED	Furniture	4	1	2	[0, 0, 0]	n/a	0	1	0	n/a	n/a	0.0	0	0	0	catFR2	0	R1026D
332.942	9.648	579176	REC_WORD	9.929	n/a	BOOKSTAND	n/a	-999	0	2	[0, 0, 0]	n/a	0	1	0	n/a	n/a	0.0	0	0	0	catFR2	0	R1026D
342.59	7.274	594612	REC_WORD	19.577	n/a	BOOKSHELF	n/a	-999	0	2	[0, 0, 0]	n/a	0	1	0	n/a	n/a	0.0	0	0	0	catFR2	0	R1026D
349.864	0.99	606250	REC_WORD	26.851	n/a	FOG	Weather	5	1	2	[0, 0, 0]	n/a	0	1	0	n/a	n/a	0.0	0	0	0	catFR2	0	R1026D
350.854	2.182	607834	REC_WORD	27.841	n/a	CLOUD	Weather	6	1	2	[0, 0, 0]	n/a	0	1	0	n/a	n/a	0.0	0	0	0	catFR2	0	R1026D
353.036	8.768	611325	REC_END	n/a	n/a	n/a	n/a	-999	0	2	[0, 0, 0]	n/a	0	1	0	n/a	n/a	0.0	0	0	0	catFR2	0	R1026D
361.804	0.0	625353	TRIAL	n/a	n/a	n/a	n/a	-999	0	3	[0, 0, 0]	n/a	0	1	0	n/a	n/a	0.0	0	0	0	catFR2	0	R1026D
361.804	10.0	625353	COUNTDOWN_START	n/a	n/a	n/a	n/a	-999	0	3	[0, 0, 0]	n/a	0	1	0	n/a	n/a	0.0	0	0	0	catFR2	0	R1026D
372.232	0.006	642037	COUNTDOWN_END	n/a	n/a	n/a	n/a	-999	0	3	[0, 0, 0]	n/a	0	1	0	n/a	n/a	0.0	0	0	0	catFR2	0	R1026D
372.238	1.6	642047	ORIENT	n/a	n/a	n/a	n/a	-999	0	3	[0, 0, 0]	n/a	0	1	0	n/a	n/a	0.0	0	0	0	catFR2	0	R1026D
376.039	1.6	648128	WORD	n/a	wordpools/wordpool_categorized_EN.txt	OCEAN	Landscapes	1	0	3	[0, 0, 0]	n/a	0	1	0	n/a	n/a	0.0	0	0	0	catFR2	0	R1026D
378.539	1.6	652128	WORD	n/a	wordpools/wordpool_categorized_EN.txt	LAKE	Landscapes	2	0	3	[0, 0, 0]	n/a	0	1	0	n/a	n/a	0.0	0	0	0	catFR2	0	R1026D
380.922	4.6	655941	STIM_ON	n/a	n/a	n/a	n/a	-999	0	3	[0, 0, 0]	n/a	1	1	4600	LPIG9	LPIG10	1500.0	50	230	300	catFR2	0	R1026D
381.14	1.6	656289	WORD	n/a	wordpools/wordpool_categorized_EN.txt	UNDERWEAR	Clothing	3	1	3	[0, 0, 0]	n/a	1	1	4600	LPIG9	LPIG10	1500.0	50	230	300	catFR2	0	R1026D
383.524	1.6	660104	WORD	n/a	wordpools/wordpool_categorized_EN.txt	DRESS	Clothing	4	1	3	[0, 0, 0]	n/a	1	1	4600	LPIG9	LPIG10	1500.0	50	230	300	catFR2	0	R1026D
385.958	1.6	663998	WORD	n/a	wordpools/wordpool_categorized_EN.txt	LILY	Flowers	5	1	3	[0, 0, 0]	n/a	0	1	0	n/a	n/a	0.0	0	0	0	catFR2	0	R1026D
388.524	1.6	668103	WORD	n/a	wordpools/wordpool_categorized_EN.txt	DAFFODIL	Flowers	6	0	3	[0, 0, 0]	n/a	0	1	0	n/a	n/a	0.0	0	0	0	catFR2	0	R1026D
390.703	4.6	671589	STIM_ON	n/a	n/a	n/a	n/a	-999	0	3	[0, 0, 0]	n/a	1	1	4600	LPIG9	LPIG10	1500.0	50	230	300	catFR2	0	R1026D
390.909	1.6	671919	WORD	n/a	wordpools/wordpool_categorized_EN.txt	JEANS	Clothing	7	1	3	[0, 0, 0]	n/a	1	1	4600	LPIG9	LPIG10	1500.0	50	230	300	catFR2	0	R1026D
393.392	1.6	675892	WORD	n/a	wordpools/wordpool_categorized_EN.txt	JACKET	Clothing	8	1	3	[0, 0, 0]	n/a	1	1	4600	LPIG9	LPIG10	1500.0	50	230	300	catFR2	0	R1026D
395.992	1.6	680051	WORD	n/a	wordpools/wordpool_categorized_EN.txt	BEACH	Landscapes	9	0	3	[0, 0, 0]	n/a	0	1	0	n/a	n/a	0.0	0	0	0	catFR2	0	R1026D
398.56	1.6	684160	WORD	n/a	wordpools/wordpool_categorized_EN.txt	FOREST	Landscapes	10	0	3	[0, 0, 0]	n/a	0	1	0	n/a	n/a	0.0	0	0	0	catFR2	0	R1026D
400.776	4.6	687705	STIM_ON	n/a	n/a	n/a	n/a	-999	0	3	[0, 0, 0]	n/a	1	1	4600	LPIG9	LPIG10	1500.0	50	230	300	catFR2	0	R1026D
400.993	1.6	688053	WORD	n/a	wordpools/wordpool_categorized_EN.txt	VIOLET	Flowers	11	1	3	[0, 0, 0]	n/a	1	1	4600	LPIG9	LPIG10	1500.0	50	230	300	catFR2	0	R1026D
403.527	1.6	692107	WORD	n/a	wordpools/wordpool_categorized_EN.txt	LILAC	Flowers	12	0	3	[0, 0, 0]	n/a	1	1	4600	LPIG9	LPIG10	1500.0	50	230	300	catFR2	0	R1026D
405.144	0.001	694694	DISTRACT_START	n/a	n/a	n/a	n/a	-999	0	3	[0, 0, 0]	n/a	0	1	0	n/a	n/a	0.0	0	0	0	catFR2	0	R1026D
405.145	0.016	694695	START	n/a	n/a	n/a	n/a	-999	0	3	[-999, -999, -999]	n/a	0	1	0	n/a	n/a	0.0	0	0	0	catFR2	0	R1026D
405.161	4.317	694721	PROB	4.282	n/a	n/a	n/a	-999	0	3	[4, 9, 2]	15	0	1	0	n/a	n/a	0.0	0	0	0	catFR2	0	R1026D
409.478	3.701	701628	PROB	3.677	n/a	n/a	n/a	-999	0	3	[2, 1, 2]	15	0	1	0	n/a	n/a	0.0	0	0	0	catFR2	0	R1026D
413.179	6.368	707549	PROB	6.336	n/a	n/a	n/a	-999	0	3	[8, 6, 9]	23	0	1	0	n/a	n/a	0.0	0	0	0	catFR2	0	R1026D
419.547	4.385	717738	PROB	4.353	n/a	n/a	n/a	-999	0	3	[2, 6, 4]	12	0	1	0	n/a	n/a	0.0	0	0	0	catFR2	0	R1026D
423.932	4.511	724753	PROB	4.511	n/a	n/a	n/a	-999	0	3	[5, 3, 6]	14	0	1	0	n/a	n/a	0.0	0	0	0	catFR2	0	R1026D
428.443	0.005	731970	STOP	n/a	n/a	n/a	n/a	-999	0	3	[-999, -999, -999]	n/a	0	1	0	n/a	n/a	0.0	0	0	0	catFR2	0	R1026D
428.448	1.069	731978	DISTRACT_END	n/a	n/a	n/a	n/a	-999	0	3	[0, 0, 0]	n/a	0	1	0	n/a	n/a	0.0	0	0	0	catFR2	0	R1026D
429.517	2.784	733689	REC_START	n/a	n/a	n/a	n/a	-999	0	3	[0, 0, 0]	n/a	0	1	0	n/a	n/a	0.0	0	0	0	catFR2	0	R1026D
432.301	1.149	738143	REC_WORD	2.784	n/a	LILY	Flowers	5	1	3	[0, 0, 0]	n/a	0	1	0	n/a	n/a	0.0	0	0	0	catFR2	0	R1026D
433.45	3.617	739981	REC_WORD	3.933	n/a	VIOLET	Flowers	11	1	3	[0, 0, 0]	n/a	0	1	0	n/a	n/a	0.0	0	0	0	catFR2	0	R1026D
437.067	0.784	745768	REC_WORD	7.55	n/a	JEANS	Clothing	7	1	3	[0, 0, 0]	n/a	0	1	0	n/a	n/a	0.0	0	0	0	catFR2	0	R1026D
437.851	0.364	747022	REC_WORD_VV	8.334	n/a	<>	n/a	-999	0	3	[0, 0, 0]	n/a	0	1	0	n/a	n/a	0.0	0	0	0	catFR2	0	R1026D
438.215	1.649	747605	REC_WORD	8.698	n/a	SWEATER	n/a	-999	0	3	[0, 0, 0]	n/a	0	1	0	n/a	n/a	0.0	0	0	0	catFR2	0	R1026D
439.864	8.367	750243	REC_WORD	10.347	n/a	JACKET	Clothing	8	1	3	[0, 0, 0]	n/a	0	1	0	n/a	n/a	0.0	0	0	0	catFR2	0	R1026D
448.231	1.146	763630	REC_WORD	18.714	n/a	UNDERWEAR	Clothing	3	1	3	[0, 0, 0]	n/a	0	1	0	n/a	n/a	0.0	0	0	0	catFR2	0	R1026D
449.377	10.151	765463	REC_WORD	19.86	n/a	DRESS	Clothing	4	1	3	[0, 0, 0]	n/a	0	1	0	n/a	n/a	0.0	0	0	0	catFR2	0	R1026D
459.528	13.862	781704	REC_END	n/a	n/a	n/a	n/a	-999	0	3	[0, 0, 0]	n/a	0	1	0	n/a	n/a	0.0	0	0	0	catFR2	0	R1026D
473.39	0.0	803882	TRIAL	n/a	n/a	n/a	n/a	-999	0	4	[0, 0, 0]	n/a	0	1	0	n/a	n/a	0.0	0	0	0	catFR2	0	R1026D
473.39	10.0	803882	COUNTDOWN_START	n/a	n/a	n/a	n/a	-999	0	4	[0, 0, 0]	n/a	0	1	0	n/a	n/a	0.0	0	0	0	catFR2	0	R1026D
483.818	0.008	820566	COUNTDOWN_END	n/a	n/a	n/a	n/a	-999	0	4	[0, 0, 0]	n/a	0	1	0	n/a	n/a	0.0	0	0	0	catFR2	0	R1026D
483.826	1.6	820579	ORIENT	n/a	n/a	n/a	n/a	-999	0	4	[0, 0, 0]	n/a	0	1	0	n/a	n/a	0.0	0	0	0	catFR2	0	R1026D
487.194	4.6	825967	STIM_ON	n/a	n/a	n/a	n/a	-999	0	4	[0, 0, 0]	n/a	1	1	4600	LPIG9	LPIG10	1500.0	50	230	300	catFR2	0	R1026D
487.409	1.6	826311	WORD	n/a	wordpools/wordpool_categorized_EN.txt	CEILING	Building	1	0	4	[0, 0, 0]	n/a	1	1	4600	LPIG9	LPIG10	1500.0	50	230	300	catFR2	0	R1026D
489.911	1.6	830314	WORD	n/a	wordpools/wordpool_categorized_EN.txt	FLOOR	Building	2	0	4	[0, 0, 0]	n/a	1	1	4600	LPIG9	LPIG10	1500.0	50	230	300	catFR2	0	R1026D
492.51	1.6	834473	WORD	n/a	wordpools/wordpool_categorized_EN.txt	ELM	Trees	3	1	4	[0, 0, 0]	n/a	0	1	0	n/a	n/a	0.0	0	0	0	catFR2	0	R1026D
494.994	1.6	838447	WORD	n/a	wordpools/wordpool_categorized_EN.txt	CEDAR	Trees	4	1	4	[0, 0, 0]	n/a	0	1	0	n/a	n/a	0.0	0	0	0	catFR2	0	R1026D
497.358	4.6	842229	STIM_ON	n/a	n/a	n/a	n/a	-999	0	4	[0, 0, 0]	n/a	1	1	4600	LPIG9	LPIG10	1500.0	50	230	300	catFR2	0	R1026D
497.561	1.6	842554	WORD	n/a	wordpools/wordpool_categorized_EN.txt	DOVE	Birds	5	1	4	[0, 0, 0]	n/a	1	1	4600	LPIG9	LPIG10	1500.0	50	230	300	catFR2	0	R1026D
500.028	1.6	846501	WORD	n/a	wordpools/wordpool_categorized_EN.txt	CARDINAL	Birds	6	1	4	[0, 0, 0]	n/a	1	1	4600	LPIG9	LPIG10	1500.0	50	230	300	catFR2	0	R1026D
502.579	1.6	850582	WORD	n/a	wordpools/wordpool_categorized_EN.txt	BIRCH	Trees	7	1	4	[0, 0, 0]	n/a	0	1	0	n/a	n/a	0.0	0	0	0	catFR2	0	R1026D
505.179	1.6	854742	WORD	n/a	wordpools/wordpool_categorized_EN.txt	MAPLE	Trees	8	1	4	[0, 0, 0]	n/a	0	1	0	n/a	n/a	0.0	0	0	0	catFR2	0	R1026D
507.55	4.6	858535	STIM_ON	n/a	n/a	n/a	n/a	-999	0	4	[0, 0, 0]	n/a	1	1	4600	LPIG9	LPIG10	1500.0	50	230	300	catFR2	0	R1026D
507.764	1.6	858878	WORD	n/a	wordpools/wordpool_categorized_EN.txt	HALLWAY	Building	9	0	4	[0, 0, 0]	n/a	1	1	4600	LPIG9	LPIG10	1500.0	50	230	300	catFR2	0	R1026D
510.347	1.6	863010	WORD	n/a	wordpools/wordpool_categorized_EN.txt	STAIRS	Building	10	0	4	[0, 0, 0]	n/a	1	1	4600	LPIG9	LPIG10	1500.0	50	230	300	catFR2	0	R1026D
512.798	1.6	866932	WORD	n/a	wordpools/wordpool_categorized_EN.txt	GOOSE	Birds	11	1	4	[0, 0, 0]	n/a	0	1	0	n/a	n/a	0.0	0	0	0	catFR2	0	R1026D
515.231	1.6	870824	WORD	n/a	wordpools/wordpool_categorized_EN.txt	SEAGULL	Birds	12	0	4	[0, 0, 0]	n/a	0	1	0	n/a	n/a	0.0	0	0	0	catFR2	0	R1026D
516.832	0.001	873386	DISTRACT_START	n/a	n/a	n/a	n/a	-999	0	4	[0, 0, 0]	n/a	0	1	0	n/a	n/a	0.0	0	0	0	catFR2	0	R1026D
516.833	0.016	873387	START	n/a	n/a	n/a	n/a	-999	0	4	[-999, -999, -999]	n/a	0	1	0	n/a	n/a	0.0	0	0	0	catFR2	0	R1026D
516.849	6.001	873413	PROB	5.979	n/a	n/a	n/a	-999	0	4	[7, 9, 1]	17	0	1	0	n/a	n/a	0.0	0	0	0	catFR2	0	R1026D
522.85	5.3	883014	PROB	5.273	n/a	n/a	n/a	-999	0	4	[3, 9, 6]	18	0	1	0	n/a	n/a	0.0	0	0	0	catFR2	0	R1026D
528.15	4.318	891494	PROB	4.293	n/a	n/a	n/a	-999	0	4	[7, 5, 3]	15	0	1	0	n/a	n/a	0.0	0	0	0	catFR2	0	R1026D
532.468	5.184	898402	PROB	5.184	n/a	n/a	n/a	-999	0	4	[5, 9, 8]	21	0	1	0	n/a	n/a	0.0	0	0	0	catFR2	0	R1026D
537.652	0.018	906696	STOP	n/a	n/a	n/a	n/a	-999	0	4	[-999, -999, -999]	n/a	0	1	0	n/a	n/a	0.0	0	0	0	catFR2	0	R1026D
537.67	1.184	906725	DISTRACT_END	n/a	n/a	n/a	n/a	-999	0	4	[0, 0, 0]	n/a	0	1	0	n/a	n/a	0.0	0	0	0	catFR2	0	R1026D
538.854	3.736	908619	REC_START	n/a	n/a	n/a	n/a	-999	0	4	[0, 0, 0]	n/a	0	1	0	n/a	n/a	0.0	0	0	0	catFR2	0	R1026D
542.59	2.961	914597	REC_WORD	3.736	n/a	ELM	Trees	3	1	4	[0, 0, 0]	n/a	0	1	0	n/a	n/a	0.0	0	0	0	catFR2	0	R1026D
545.551	3.15	919334	REC_WORD	6.697	n/a	BIRCH	Trees	7	1	4	[0, 0, 0]	n/a	0	1	0	n/a	n/a	0.0	0	0	0	catFR2	0	R1026D
548.701	3.832	924374	REC_WORD	9.847	n/a	MAPLE	Trees	8	1	4	[0, 0, 0]	n/a	0	1	0	n/a	n/a	0.0	0	0	0	catFR2	0	R1026D
552.533	3.654	930505	REC_WORD	13.679	n/a	CEDAR	Trees	4	1	4	[0, 0, 0]	n/a	0	1	0	n/a	n/a	0.0	0	0	0	catFR2	0	R1026D
556.187	1.61	936351	REC_WORD	17.333	n/a	DOVE	Birds	5	1	4	[0, 0, 0]	n/a	0	1	0	n/a	n/a	0.0	0	0	0	catFR2	0	R1026D
557.797	6.153	938927	REC_WORD	18.943	n/a	GOOSE	Birds	11	1	4	[0, 0, 0]	n/a	0	1	0	n/a	n/a	0.0	0	0	0	catFR2	0	R1026D
563.95	4.915	948771	REC_WORD	25.096	n/a	CARDINAL	Birds	6	1	4	[0, 0, 0]	n/a	0	1	0	n/a	n/a	0.0	0	0	0	catFR2	0	R1026D
568.865	4.427	956634	REC_END	n/a	n/a	n/a	n/a	-999	0	4	[0, 0, 0]	n/a	0	1	0	n/a	n/a	0.0	0	0	0	catFR2	0	R1026D
573.292	10.0	963717	COUNTDOWN_START	n/a	n/a	n/a	n/a	-999	0	5	[0, 0, 0]	n/a	0	1	0	n/a	n/a	0.0	0	0	0	catFR2	0	R1026D
573.292	10.428	963717	TRIAL	n/a	n/a	n/a	n/a	-999	0	5	[0, 0, 0]	n/a	0	1	0	n/a	n/a	0.0	0	0	0	catFR2	0	R1026D
583.72	0.008	980401	COUNTDOWN_END	n/a	n/a	n/a	n/a	-999	0	5	[0, 0, 0]	n/a	0	1	0	n/a	n/a	0.0	0	0	0	catFR2	0	R1026D
583.728	1.6	980414	ORIENT	n/a	n/a	n/a	n/a	-999	0	5	[0, 0, 0]	n/a	0	1	0	n/a	n/a	0.0	0	0	0	catFR2	0	R1026D
587.461	1.6	986387	WORD	n/a	wordpools/wordpool_categorized_EN.txt	PIE	Desserts	1	1	5	[0, 0, 0]	n/a	0	1	0	n/a	n/a	0.0	0	0	0	catFR2	0	R1026D
589.879	1.6	990255	WORD	n/a	wordpools/wordpool_categorized_EN.txt	PUDDING	Desserts	2	1	5	[0, 0, 0]	n/a	0	1	0	n/a	n/a	0.0	0	0	0	catFR2	0	R1026D
592.069	4.6	993759	STIM_ON	n/a	n/a	n/a	n/a	-999	0	5	[0, 0, 0]	n/a	1	1	4600	LPIG9	LPIG10	1500.0	50	230	300	catFR2	0	R1026D
592.279	1.6	994095	WORD	n/a	wordpools/wordpool_categorized_EN.txt	SPIDER	Insects	3	0	5	[0, 0, 0]	n/a	1	1	4600	LPIG9	LPIG10	1500.0	50	230	300	catFR2	0	R1026D
594.73	1.6	998016	WORD	n/a	wordpools/wordpool_categorized_EN.txt	BEE	Insects	4	0	5	[0, 0, 0]	n/a	1	1	4600	LPIG9	LPIG10	1500.0	50	230	300	catFR2	0	R1026D
597.296	1.6	1002122	WORD	n/a	wordpools/wordpool_categorized_EN.txt	POTATO	Vegetables	5	0	5	[0, 0, 0]	n/a	0	1	0	n/a	n/a	0.0	0	0	0	catFR2	0	R1026D
599.864	1.6	1006230	WORD	n/a	wordpools/wordpool_categorized_EN.txt	LETTUCE	Vegetables	6	0	5	[0, 0, 0]	n/a	0	1	0	n/a	n/a	0.0	0	0	0	catFR2	0	R1026D
602.178	4.6	1009933	STIM_ON	n/a	n/a	n/a	n/a	-999	0	5	[0, 0, 0]	n/a	1	1	4600	LPIG9	LPIG10	1500.0	50	230	300	catFR2	0	R1026D
602.38	1.6	1010256	WORD	n/a	wordpools/wordpool_categorized_EN.txt	MOTH	Insects	7	1	5	[0, 0, 0]	n/a	1	1	4600	LPIG9	LPIG10	1500.0	50	230	300	catFR2	0	R1026D
604.965	1.6	1014392	WORD	n/a	wordpools/wordpool_categorized_EN.txt	ANT	Insects	8	1	5	[0, 0, 0]	n/a	1	1	4600	LPIG9	LPIG10	1500.0	50	230	300	catFR2	0	R1026D
607.381	1.6	1018257	WORD	n/a	wordpools/wordpool_categorized_EN.txt	COBBLER	Desserts	9	1	5	[0, 0, 0]	n/a	0	1	0	n/a	n/a	0.0	0	0	0	catFR2	0	R1026D
609.766	1.6	1022073	WORD	n/a	wordpools/wordpool_categorized_EN.txt	CHEESECAKE	Desserts	10	1	5	[0, 0, 0]	n/a	0	1	0	n/a	n/a	0.0	0	0	0	catFR2	0	R1026D
612.102	4.6	1025810	STIM_ON	n/a	n/a	n/a	n/a	-999	0	5	[0, 0, 0]	n/a	1	1	4600	LPIG9	LPIG10	1500.0	50	230	300	catFR2	0	R1026D
612.316	1.6	1026153	WORD	n/a	wordpools/wordpool_categorized_EN.txt	PEAS	Vegetables	11	0	5	[0, 0, 0]	n/a	1	1	4600	LPIG9	LPIG10	1500.0	50	230	300	catFR2	0	R1026D
614.767	1.6	1030074	WORD	n/a	wordpools/wordpool_categorized_EN.txt	CABBAGE	Vegetables	12	0	5	[0, 0, 0]	n/a	1	1	4600	LPIG9	LPIG10	1500.0	50	230	300	catFR2	0	R1026D
616.383	0.001	1032659	DISTRACT_START	n/a	n/a	n/a	n/a	-999	0	5	[0, 0, 0]	n/a	0	1	0	n/a	n/a	0.0	0	0	0	catFR2	0	R1026D
616.384	0.016	1032661	START	n/a	n/a	n/a	n/a	-999	0	5	[-999, -999, -999]	n/a	0	1	0	n/a	n/a	0.0	0	0	0	catFR2	0	R1026D
616.4	25.364	1032687	PROB	25.364	n/a	n/a	n/a	-999	0	5	[6, 7, 9]	22	0	1	0	n/a	n/a	0.0	0	0	0	catFR2	0	R1026D
641.764	0.008	1073267	STOP	n/a	n/a	n/a	n/a	-999	0	5	[-999, -999, -999]	n/a	0	1	0	n/a	n/a	0.0	0	0	0	catFR2	0	R1026D
641.772	1.184	1073280	DISTRACT_END	n/a	n/a	n/a	n/a	-999	0	5	[0, 0, 0]	n/a	0	1	0	n/a	n/a	0.0	0	0	0	catFR2	0	R1026D
642.956	4.761	1075174	REC_START	n/a	n/a	n/a	n/a	-999	0	5	[0, 0, 0]	n/a	0	1	0	n/a	n/a	0.0	0	0	0	catFR2	0	R1026D
647.717	1.271	1082791	REC_WORD	4.761	n/a	CHEESECAKE	Desserts	10	1	5	[0, 0, 0]	n/a	0	1	0	n/a	n/a	0.0	0	0	0	catFR2	0	R1026D
648.988	1.54	1084825	REC_WORD	6.032	n/a	COBBLER	Desserts	9	1	5	[0, 0, 0]	n/a	0	1	0	n/a	n/a	0.0	0	0	0	catFR2	0	R1026D
650.528	1.3	1087289	REC_WORD	7.572	n/a	PIE	Desserts	1	1	5	[0, 0, 0]	n/a	0	1	0	n/a	n/a	0.0	0	0	0	catFR2	0	R1026D
651.828	2.596	1089369	REC_WORD	8.872	n/a	PUDDING	Desserts	2	1	5	[0, 0, 0]	n/a	0	1	0	n/a	n/a	0.0	0	0	0	catFR2	0	R1026D
654.424	0.558	1093522	REC_WORD	11.468	n/a	ANT	Insects	8	1	5	[0, 0, 0]	n/a	0	1	0	n/a	n/a	0.0	0	0	0	catFR2	0	R1026D
654.982	0.64	1094415	REC_WORD_VV	12.026	n/a	<>	n/a	-999	0	5	[0, 0, 0]	n/a	0	1	0	n/a	n/a	0.0	0	0	0	catFR2	0	R1026D
655.622	15.38	1095439	REC_WORD	12.666	n/a	MOTH	Insects	7	1	5	[0, 0, 0]	n/a	0	1	0	n/a	n/a	0.0	0	0	0	catFR2	0	R1026D
671.002	1.969	1120045	REC_WORD_VV	28.046	n/a	<>	n/a	-999	0	5	[0, 0, 0]	n/a	0	1	0	n/a	n/a	0.0	0	0	0	catFR2	0	R1026D
672.971	3.106	1123196	REC_END	n/a	n/a	n/a	n/a	-999	0	5	[0, 0, 0]	n/a	0	1	0	n/a	n/a	0.0	0	0	0	catFR2	0	R1026D
676.077	10.0	1128165	COUNTDOWN_START	n/a	n/a	n/a	n/a	-999	0	6	[0, 0, 0]	n/a	0	1	0	n/a	n/a	0.0	0	0	0	catFR2	0	R1026D
676.078	10.427	1128167	TRIAL	n/a	n/a	n/a	n/a	-999	0	6	[0, 0, 0]	n/a	0	1	0	n/a	n/a	0.0	0	0	0	catFR2	0	R1026D
686.505	0.008	1144849	COUNTDOWN_END	n/a	n/a	n/a	n/a	-999	0	6	[0, 0, 0]	n/a	0	1	0	n/a	n/a	0.0	0	0	0	catFR2	0	R1026D
686.513	1.6	1144862	ORIENT	n/a	n/a	n/a	n/a	-999	0	6	[0, 0, 0]	n/a	0	1	0	n/a	n/a	0.0	0	0	0	catFR2	0	R1026D
689.997	1.6	1150436	WORD	n/a	wordpools/wordpool_categorized_EN.txt	SHORTS	Clothing	1	1	6	[0, 0, 0]	n/a	0	1	0	n/a	n/a	0.0	0	0	0	catFR2	0	R1026D
692.48	1.6	1154409	WORD	n/a	wordpools/wordpool_categorized_EN.txt	SOCKS	Clothing	2	1	6	[0, 0, 0]	n/a	0	1	0	n/a	n/a	0.0	0	0	0	catFR2	0	R1026D
694.774	4.6	1158079	STIM_ON	n/a	n/a	n/a	n/a	-999	0	6	[0, 0, 0]	n/a	1	1	4600	LPIG9	LPIG10	1500.0	50	230	300	catFR2	0	R1026D
694.982	1.6	1158412	WORD	n/a	wordpools/wordpool_categorized_EN.txt	CORKSCREW	KitchenTools	3	0	6	[0, 0, 0]	n/a	1	1	4600	LPIG9	LPIG10	1500.0	50	230	300	catFR2	0	R1026D
697.465	1.6	1162384	WORD	n/a	wordpools/wordpool_categorized_EN.txt	COLANDER	KitchenTools	4	1	6	[0, 0, 0]	n/a	1	1	4600	LPIG9	LPIG10	1500.0	50	230	300	catFR2	0	R1026D
700.032	1.6	1166491	WORD	n/a	wordpools/wordpool_categorized_EN.txt	GRAPE	Fruit	5	0	6	[0, 0, 0]	n/a	0	1	0	n/a	n/a	0.0	0	0	0	catFR2	0	R1026D
702.515	1.6	1170464	WORD	n/a	wordpools/wordpool_categorized_EN.txt	BANANA	Fruit	6	1	6	[0, 0, 0]	n/a	0	1	0	n/a	n/a	0.0	0	0	0	catFR2	0	R1026D
704.822	4.6	1174155	STIM_ON	n/a	n/a	n/a	n/a	-999	0	6	[0, 0, 0]	n/a	1	1	4600	LPIG9	LPIG10	1500.0	50	230	300	catFR2	0	R1026D
705.033	1.6	1174492	WORD	n/a	wordpools/wordpool_categorized_EN.txt	COAT	Clothing	7	0	6	[0, 0, 0]	n/a	1	1	4600	LPIG9	LPIG10	1500.0	50	230	300	catFR2	0	R1026D
707.416	1.6	1178305	WORD	n/a	wordpools/wordpool_categorized_EN.txt	SHOES	Clothing	8	0	6	[0, 0, 0]	n/a	1	1	4600	LPIG9	LPIG10	1500.0	50	230	300	catFR2	0	R1026D
710.034	1.6	1182494	WORD	n/a	wordpools/wordpool_categorized_EN.txt	CHERRY	Fruit	9	0	6	[0, 0, 0]	n/a	0	1	0	n/a	n/a	0.0	0	0	0	catFR2	0	R1026D
712.6	1.6	1186599	WORD	n/a	wordpools/wordpool_categorized_EN.txt	BLUEBERRY	Fruit	10	1	6	[0, 0, 0]	n/a	0	1	0	n/a	n/a	0.0	0	0	0	catFR2	0	R1026D
714.866	4.6	1190224	STIM_ON	n/a	n/a	n/a	n/a	-999	0	6	[0, 0, 0]	n/a	1	1	4600	LPIG9	LPIG10	1500.0	50	230	300	catFR2	0	R1026D
715.084	1.6	1190573	WORD	n/a	wordpools/wordpool_categorized_EN.txt	FORK	KitchenTools	11	0	6	[0, 0, 0]	n/a	1	1	4600	LPIG9	LPIG10	1500.0	50	230	300	catFR2	0	R1026D
717.653	1.6	1194683	WORD	n/a	wordpools/wordpool_categorized_EN.txt	STRAINER	KitchenTools	12	1	6	[0, 0, 0]	n/a	1	1	4600	LPIG9	LPIG10	1500.0	50	230	300	catFR2	0	R1026D
719.269	0.001	1197269	DISTRACT_START	n/a	n/a	n/a	n/a	-999	0	6	[0, 0, 0]	n/a	0	1	0	n/a	n/a	0.0	0	0	0	catFR2	0	R1026D
719.27	0.015	1197270	START	n/a	n/a	n/a	n/a	-999	0	6	[-999, -999, -999]	n/a	0	1	0	n/a	n/a	0.0	0	0	0	catFR2	0	R1026D
719.285	10.085	1197294	PROB	10.054	n/a	n/a	n/a	-999	0	6	[3, 7, 8]	18	0	1	0	n/a	n/a	0.0	0	0	0	catFR2	0	R1026D
729.37	11.785	1213430	PROB	11.785	n/a	n/a	n/a	-999	0	6	[8, 6, 5]	19	0	1	0	n/a	n/a	0.0	0	0	0	catFR2	0	R1026D
741.155	0.018	1232285	STOP	n/a	n/a	n/a	n/a	-999	0	6	[-999, -999, -999]	n/a	0	1	0	n/a	n/a	0.0	0	0	0	catFR2	0	R1026D
741.173	1.101	1232313	DISTRACT_END	n/a	n/a	n/a	n/a	-999	0	6	[0, 0, 0]	n/a	0	1	0	n/a	n/a	0.0	0	0	0	catFR2	0	R1026D
742.274	2.14	1234075	REC_START	n/a	n/a	n/a	n/a	-999	0	6	[0, 0, 0]	n/a	0	1	0	n/a	n/a	0.0	0	0	0	catFR2	0	R1026D
744.414	1.221	1237499	REC_WORD	2.14	n/a	SHORTS	Clothing	1	1	6	[0, 0, 0]	n/a	0	1	0	n/a	n/a	0.0	0	0	0	catFR2	0	R1026D
745.635	1.097	1239452	REC_WORD	3.361	n/a	SOCKS	Clothing	2	1	6	[0, 0, 0]	n/a	0	1	0	n/a	n/a	0.0	0	0	0	catFR2	0	R1026D
746.732	6.589	1241207	REC_WORD_VV	4.458	n/a	<>	n/a	-999	0	6	[0, 0, 0]	n/a	0	1	0	n/a	n/a	0.0	0	0	0	catFR2	0	R1026D
753.321	2.932	1251749	REC_WORD	11.047	n/a	STRAINER	KitchenTools	12	1	6	[0, 0, 0]	n/a	0	1	0	n/a	n/a	0.0	0	0	0	catFR2	0	R1026D
756.253	14.096	1256440	REC_WORD	13.979	n/a	COLANDER	KitchenTools	4	1	6	[0, 0, 0]	n/a	0	1	0	n/a	n/a	0.0	0	0	0	catFR2	0	R1026D
770.349	1.178	1278993	REC_WORD	28.075	n/a	BLUEBERRY	Fruit	10	1	6	[0, 0, 0]	n/a	0	1	0	n/a	n/a	0.0	0	0	0	catFR2	0	R1026D
771.527	0.758	1280877	REC_WORD	29.253	n/a	BANANA	Fruit	6	1	6	[0, 0, 0]	n/a	0	1	0	n/a	n/a	0.0	0	0	0	catFR2	0	R1026D
772.285	4.177	1282090	REC_END	n/a	n/a	n/a	n/a	-999	0	6	[0, 0, 0]	n/a	0	1	0	n/a	n/a	0.0	0	0	0	catFR2	0	R1026D
776.462	10.0	1288773	COUNTDOWN_START	n/a	n/a	n/a	n/a	-999	0	7	[0, 0, 0]	n/a	0	0	0	n/a	n/a	0.0	0	0	0	catFR2	0	R1026D
776.463	10.427	1288775	TRIAL	n/a	n/a	n/a	n/a	-999	0	7	[0, 0, 0]	n/a	0	0	0	n/a	n/a	0.0	0	0	0	catFR2	0	R1026D
786.89	0.009	1305457	COUNTDOWN_END	n/a	n/a	n/a	n/a	-999	0	7	[0, 0, 0]	n/a	0	0	0	n/a	n/a	0.0	0	0	0	catFR2	0	R1026D
786.899	1.6	1305471	ORIENT	n/a	n/a	n/a	n/a	-999	0	7	[0, 0, 0]	n/a	0	0	0	n/a	n/a	0.0	0	0	0	catFR2	0	R1026D
790.482	1.6	1311204	WORD	n/a	wordpools/wordpool_categorized_EN.txt	RIVER	Landscapes	1	0	7	[0, 0, 0]	n/a	0	0	0	n/a	n/a	0.0	0	0	0	catFR2	0	R1026D
792.866	1.6	1315018	WORD	n/a	wordpools/wordpool_categorized_EN.txt	WOODS	Landscapes	2	1	7	[0, 0, 0]	n/a	0	0	0	n/a	n/a	0.0	0	0	0	catFR2	0	R1026D
795.333	1.6	1318965	WORD	n/a	wordpools/wordpool_categorized_EN.txt	PIANO	Instruments	3	1	7	[0, 0, 0]	n/a	0	0	0	n/a	n/a	0.0	0	0	0	catFR2	0	R1026D
797.734	1.6	1322807	WORD	n/a	wordpools/wordpool_categorized_EN.txt	TUBA	Instruments	4	1	7	[0, 0, 0]	n/a	0	0	0	n/a	n/a	0.0	0	0	0	catFR2	0	R1026D
800.2	1.6	1326752	WORD	n/a	wordpools/wordpool_categorized_EN.txt	GLUE	OfficeSupplies	5	0	7	[0, 0, 0]	n/a	0	0	0	n/a	n/a	0.0	0	0	0	catFR2	0	R1026D
802.802	1.6	1330915	WORD	n/a	wordpools/wordpool_categorized_EN.txt	TAPE	OfficeSupplies	6	0	7	[0, 0, 0]	n/a	0	0	0	n/a	n/a	0.0	0	0	0	catFR2	0	R1026D
805.368	1.6	1335020	WORD	n/a	wordpools/wordpool_categorized_EN.txt	CREEK	Landscapes	7	1	7	[0, 0, 0]	n/a	0	0	0	n/a	n/a	0.0	0	0	0	catFR2	0	R1026D
807.986	1.6	1339209	WORD	n/a	wordpools/wordpool_categorized_EN.txt	MOUNTAIN	Landscapes	8	0	7	[0, 0, 0]	n/a	0	0	0	n/a	n/a	0.0	0	0	0	catFR2	0	R1026D
810.502	1.6	1343234	WORD	n/a	wordpools/wordpool_categorized_EN.txt	RULER	OfficeSupplies	9	0	7	[0, 0, 0]	n/a	0	0	0	n/a	n/a	0.0	0	0	0	catFR2	0	R1026D
813.052	1.6	1347314	WORD	n/a	wordpools/wordpool_categorized_EN.txt	PEN	OfficeSupplies	10	0	7	[0, 0, 0]	n/a	0	0	0	n/a	n/a	0.0	0	0	0	catFR2	0	R1026D
815.636	1.6	1351448	WORD	n/a	wordpools/wordpool_categorized_EN.txt	FLUTE	Instruments	11	0	7	[0, 0, 0]	n/a	0	0	0	n/a	n/a	0.0	0	0	0	catFR2	0	R1026D
818.07	1.6	1355343	WORD	n/a	wordpools/wordpool_categorized_EN.txt	ORGAN	Instruments	12	0	7	[0, 0, 0]	n/a	0	0	0	n/a	n/a	0.0	0	0	0	catFR2	0	R1026D
819.688	0.001	1357931	DISTRACT_START	n/a	n/a	n/a	n/a	-999	0	7	[0, 0, 0]	n/a	0	0	0	n/a	n/a	0.0	0	0	0	catFR2	0	R1026D
819.689	0.016	1357933	START	n/a	n/a	n/a	n/a	-999	0	7	[-999, -999, -999]	n/a	0	0	0	n/a	n/a	0.0	0	0	0	catFR2	0	R1026D
819.705	4.733	1357958	PROB	4.698	n/a	n/a	n/a	-999	0	7	[4, 8, 6]	18	0	0	0	n/a	n/a	0.0	0	0	0	catFR2	0	R1026D
824.438	3.1	1365531	PROB	3.077	n/a	n/a	n/a	-999	0	7	[2, 6, 1]	9	0	0	0	n/a	n/a	0.0	0	0	0	catFR2	0	R1026D
827.538	5.119	1370491	PROB	5.097	n/a	n/a	n/a	-999	0	7	[8, 6, 3]	17	0	0	0	n/a	n/a	0.0	0	0	0	catFR2	0	R1026D
832.657	4.633	1378681	PROB	4.602	n/a	n/a	n/a	-999	0	7	[9, 2, 9]	20	0	0	0	n/a	n/a	0.0	0	0	0	catFR2	0	R1026D
837.29	4.801	1386093	PROB	4.801	n/a	n/a	n/a	-999	0	7	[5, 1, 3]	9	0	0	0	n/a	n/a	0.0	0	0	0	catFR2	0	R1026D
842.091	0.017	1393774	STOP	n/a	n/a	n/a	n/a	-999	0	7	[-999, -999, -999]	n/a	0	0	0	n/a	n/a	0.0	0	0	0	catFR2	0	R1026D
842.108	1.201	1393801	DISTRACT_END	n/a	n/a	n/a	n/a	-999	0	7	[0, 0, 0]	n/a	0	0	0	n/a	n/a	0.0	0	0	0	catFR2	0	R1026D
843.309	3.481	1395723	REC_START	n/a	n/a	n/a	n/a	-999	0	7	[0, 0, 0]	n/a	0	0	0	n/a	n/a	0.0	0	0	0	catFR2	0	R1026D
846.79	2.12	1401292	REC_WORD	3.481	n/a	WOODS	Landscapes	2	1	7	[0, 0, 0]	n/a	0	0	0	n/a	n/a	0.0	0	0	0	catFR2	0	R1026D
848.91	3.284	1404684	REC_WORD	5.601	n/a	WATER	n/a	-999	0	7	[0, 0, 0]	n/a	0	0	0	n/a	n/a	0.0	0	0	0	catFR2	0	R1026D
852.194	6.382	1409938	REC_WORD	8.885	n/a	CREEK	Landscapes	7	1	7	[0, 0, 0]	n/a	0	0	0	n/a	n/a	0.0	0	0	0	catFR2	0	R1026D
858.576	1.065	1420149	REC_WORD	15.267	n/a	TUBA	Instruments	4	1	7	[0, 0, 0]	n/a	0	0	0	n/a	n/a	0.0	0	0	0	catFR2	0	R1026D
859.641	6.698	1421853	REC_WORD	16.332	n/a	PIANO	Instruments	3	1	7	[0, 0, 0]	n/a	0	0	0	n/a	n/a	0.0	0	0	0	catFR2	0	R1026D
866.339	1.21	1432569	REC_WORD	23.03	n/a	PENCIL	n/a	-999	0	7	[0, 0, 0]	n/a	0	0	0	n/a	n/a	0.0	0	0	0	catFR2	0	R1026D
867.549	5.769	1434505	REC_WORD	24.24	n/a	ERASER	n/a	-999	0	7	[0, 0, 0]	n/a	0	0	0	n/a	n/a	0.0	0	0	0	catFR2	0	R1026D
873.318	20.116	1443735	REC_END	n/a	n/a	n/a	n/a	-999	0	7	[0, 0, 0]	n/a	0	0	0	n/a	n/a	0.0	0	0	0	catFR2	0	R1026D
893.434	0.0	1475919	TRIAL	n/a	n/a	n/a	n/a	-999	0	8	[0, 0, 0]	n/a	0	1	0	n/a	n/a	0.0	0	0	0	catFR2	0	R1026D
893.434	10.0	1475919	COUNTDOWN_START	n/a	n/a	n/a	n/a	-999	0	8	[0, 0, 0]	n/a	0	1	0	n/a	n/a	0.0	0	0	0	catFR2	0	R1026D
903.862	0.008	1492603	COUNTDOWN_END	n/a	n/a	n/a	n/a	-999	0	8	[0, 0, 0]	n/a	0	1	0	n/a	n/a	0.0	0	0	0	catFR2	0	R1026D
903.87	1.6	1492616	ORIENT	n/a	n/a	n/a	n/a	-999	0	8	[0, 0, 0]	n/a	0	1	0	n/a	n/a	0.0	0	0	0	catFR2	0	R1026D
907.57	1.6	1498535	WORD	n/a	wordpools/wordpool_categorized_EN.txt	PLANKTON	OceanAnimals	1	1	8	[0, 0, 0]	n/a	0	1	0	n/a	n/a	0.0	0	0	0	catFR2	0	R1026D
910.137	1.6	1502642	WORD	n/a	wordpools/wordpool_categorized_EN.txt	SHRIMP	OceanAnimals	2	0	8	[0, 0, 0]	n/a	0	1	0	n/a	n/a	0.0	0	0	0	catFR2	0	R1026D
912.414	4.6	1506285	STIM_ON	n/a	n/a	n/a	n/a	-999	0	8	[0, 0, 0]	n/a	1	1	4600	LPIG9	LPIG10	1500.0	50	230	300	catFR2	0	R1026D
912.621	1.6	1506617	WORD	n/a	wordpools/wordpool_categorized_EN.txt	OAK	Trees	3	0	8	[0, 0, 0]	n/a	1	1	4600	LPIG9	LPIG10	1500.0	50	230	300	catFR2	0	R1026D
915.004	1.6	1510429	WORD	n/a	wordpools/wordpool_categorized_EN.txt	CYPRESS	Trees	4	1	8	[0, 0, 0]	n/a	1	1	4600	LPIG9	LPIG10	1500.0	50	230	300	catFR2	0	R1026D
917.555	1.6	1514511	WORD	n/a	wordpools/wordpool_categorized_EN.txt	JELLO	Desserts	5	0	8	[0, 0, 0]	n/a	0	1	0	n/a	n/a	0.0	0	0	0	catFR2	0	R1026D
920.122	1.6	1518618	WORD	n/a	wordpools/wordpool_categorized_EN.txt	FUDGE	Desserts	6	0	8	[0, 0, 0]	n/a	0	1	0	n/a	n/a	0.0	0	0	0	catFR2	0	R1026D
922.322	4.6	1522137	STIM_ON	n/a	n/a	n/a	n/a	-999	0	8	[0, 0, 0]	n/a	1	1	4600	LPIG9	LPIG10	1500.0	50	230	300	catFR2	0	R1026D
922.539	1.6	1522485	WORD	n/a	wordpools/wordpool_categorized_EN.txt	PINE	Trees	7	0	8	[0, 0, 0]	n/a	1	1	4600	LPIG9	LPIG10	1500.0	50	230	300	catFR2	0	R1026D
924.957	1.6	1526353	WORD	n/a	wordpools/wordpool_categorized_EN.txt	WILLOW	Trees	8	1	8	[0, 0, 0]	n/a	1	1	4600	LPIG9	LPIG10	1500.0	50	230	300	catFR2	0	R1026D
927.54	1.6	1530486	WORD	n/a	wordpools/wordpool_categorized_EN.txt	LOBSTER	OceanAnimals	9	0	8	[0, 0, 0]	n/a	0	1	0	n/a	n/a	0.0	0	0	0	catFR2	0	R1026D
929.975	1.6	1534382	WORD	n/a	wordpools/wordpool_categorized_EN.txt	TURTLE	OceanAnimals	10	0	8	[0, 0, 0]	n/a	0	1	0	n/a	n/a	0.0	0	0	0	catFR2	0	R1026D
932.181	4.6	1537911	STIM_ON	n/a	n/a	n/a	n/a	-999	0	8	[0, 0, 0]	n/a	1	1	4600	LPIG9	LPIG10	1500.0	50	230	300	catFR2	0	R1026D
932.391	1.6	1538247	WORD	n/a	wordpools/wordpool_categorized_EN.txt	COOKIE	Desserts	11	1	8	[0, 0, 0]	n/a	1	1	4600	LPIG9	LPIG10	1500.0	50	230	300	catFR2	0	R1026D
934.876	1.6	1542223	WORD	n/a	wordpools/wordpool_categorized_EN.txt	PASTRY	Desserts	12	0	8	[0, 0, 0]	n/a	1	1	4600	LPIG9	LPIG10	1500.0	50	230	300	catFR2	0	R1026D
936.492	0.001	1544808	DISTRACT_START	n/a	n/a	n/a	n/a	-999	0	8	[0, 0, 0]	n/a	0	1	0	n/a	n/a	0.0	0	0	0	catFR2	0	R1026D
936.493	0.015	1544810	START	n/a	n/a	n/a	n/a	-999	0	8	[-999, -999, -999]	n/a	0	1	0	n/a	n/a	0.0	0	0	0	catFR2	0	R1026D
936.508	6.118	1544834	PROB	6.087	n/a	n/a	n/a	-999	0	8	[9, 8, 9]	26	0	1	0	n/a	n/a	0.0	0	0	0	catFR2	0	R1026D
942.626	3.219	1554622	PROB	3.186	n/a	n/a	n/a	-999	0	8	[6, 1, 1]	8	0	1	0	n/a	n/a	0.0	0	0	0	catFR2	0	R1026D
945.845	6.533	1559772	PROB	6.502	n/a	n/a	n/a	-999	0	8	[3, 5, 8]	16	0	1	0	n/a	n/a	0.0	0	0	0	catFR2	0	R1026D
952.378	5.29	1570225	PROB	5.29	n/a	n/a	n/a	-999	0	8	[8, 9, 9]	26	0	1	0	n/a	n/a	0.0	0	0	0	catFR2	0	R1026D
957.668	0.012	1578688	STOP	n/a	n/a	n/a	n/a	-999	0	8	[-999, -999, -999]	n/a	0	1	0	n/a	n/a	0.0	0	0	0	catFR2	0	R1026D
957.68	1.134	1578707	DISTRACT_END	n/a	n/a	n/a	n/a	-999	0	8	[0, 0, 0]	n/a	0	1	0	n/a	n/a	0.0	0	0	0	catFR2	0	R1026D
958.814	4.405	1580522	REC_START	n/a	n/a	n/a	n/a	-999	0	8	[0, 0, 0]	n/a	0	1	0	n/a	n/a	0.0	0	0	0	catFR2	0	R1026D
963.219	8.267	1587569	REC_WORD	4.405	n/a	PLANKTON	OceanAnimals	1	1	8	[0, 0, 0]	n/a	0	1	0	n/a	n/a	0.0	0	0	0	catFR2	0	R1026D
971.486	1.352	1600796	REC_WORD	12.672	n/a	PUDDING	n/a	-999	0	8	[0, 0, 0]	n/a	0	1	0	n/a	n/a	0.0	0	0	0	catFR2	0	R1026D
972.838	4.787	1602959	REC_WORD	14.024	n/a	PIE	n/a	-999	0	8	[0, 0, 0]	n/a	0	1	0	n/a	n/a	0.0	0	0	0	catFR2	0	R1026D
977.625	1.111	1610618	REC_WORD	18.811	n/a	CYPRESS	Trees	4	1	8	[0, 0, 0]	n/a	0	1	0	n/a	n/a	0.0	0	0	0	catFR2	0	R1026D
978.736	3.502	1612395	REC_WORD_VV	19.922	n/a	<>	n/a	-999	0	8	[0, 0, 0]	n/a	0	1	0	n/a	n/a	0.0	0	0	0	catFR2	0	R1026D
982.238	2.676	1617998	REC_WORD	23.424	n/a	WILLOW	Trees	8	1	8	[0, 0, 0]	n/a	0	1	0	n/a	n/a	0.0	0	0	0	catFR2	0	R1026D
984.914	3.915	1622280	REC_WORD	26.1	n/a	COOKIE	Desserts	11	1	8	[0, 0, 0]	n/a	0	1	0	n/a	n/a	0.0	0	0	0	catFR2	0	R1026D
988.829	4.623	1628543	REC_END	n/a	n/a	n/a	n/a	-999	0	8	[0, 0, 0]	n/a	0	1	0	n/a	n/a	0.0	0	0	0	catFR2	0	R1026D
993.452	10.0	1635940	COUNTDOWN_START	n/a	n/a	n/a	n/a	-999	0	9	[0, 0, 0]	n/a	0	0	0	n/a	n/a	0.0	0	0	0	catFR2	0	R1026D
993.453	10.427	1635941	TRIAL	n/a	n/a	n/a	n/a	-999	0	9	[0, 0, 0]	n/a	0	0	0	n/a	n/a	0.0	0	0	0	catFR2	0	R1026D
1003.88	0.009	1652624	COUNTDOWN_END	n/a	n/a	n/a	n/a	-999	0	9	[0, 0, 0]	n/a	0	0	0	n/a	n/a	0.0	0	0	0	catFR2	0	R1026D
1003.889	1.6	1652638	ORIENT	n/a	n/a	n/a	n/a	-999	0	9	[0, 0, 0]	n/a	0	0	0	n/a	n/a	0.0	0	0	0	catFR2	0	R1026D
1007.538	1.6	1658476	WORD	n/a	wordpools/wordpool_categorized_EN.txt	WALNUT	Trees	1	1	9	[0, 0, 0]	n/a	0	0	0	n/a	n/a	0.0	0	0	0	catFR2	0	R1026D
1009.956	1.6	1662345	WORD	n/a	wordpools/wordpool_categorized_EN.txt	HICKORY	Trees	2	1	9	[0, 0, 0]	n/a	0	0	0	n/a	n/a	0.0	0	0	0	catFR2	0	R1026D
1012.522	1.6	1666450	WORD	n/a	wordpools/wordpool_categorized_EN.txt	MOSQUITO	Insects	3	1	9	[0, 0, 0]	n/a	0	0	0	n/a	n/a	0.0	0	0	0	catFR2	0	R1026D
1014.99	1.6	1670399	WORD	n/a	wordpools/wordpool_categorized_EN.txt	CRICKET	Insects	4	1	9	[0, 0, 0]	n/a	0	0	0	n/a	n/a	0.0	0	0	0	catFR2	0	R1026D
1017.573	1.6	1674531	WORD	n/a	wordpools/wordpool_categorized_EN.txt	MARBLES	Toys	5	0	9	[0, 0, 0]	n/a	0	0	0	n/a	n/a	0.0	0	0	0	catFR2	0	R1026D
1020.024	1.6	1678453	WORD	n/a	wordpools/wordpool_categorized_EN.txt	DOLL	Toys	6	0	9	[0, 0, 0]	n/a	0	0	0	n/a	n/a	0.0	0	0	0	catFR2	0	R1026D
1022.591	1.6	1682560	WORD	n/a	wordpools/wordpool_categorized_EN.txt	SPRUCE	Trees	7	0	9	[0, 0, 0]	n/a	0	0	0	n/a	n/a	0.0	0	0	0	catFR2	0	R1026D
1025.108	1.6	1686587	WORD	n/a	wordpools/wordpool_categorized_EN.txt	EVERGREEN	Trees	8	0	9	[0, 0, 0]	n/a	0	0	0	n/a	n/a	0.0	0	0	0	catFR2	0	R1026D
1027.575	1.6	1690534	WORD	n/a	wordpools/wordpool_categorized_EN.txt	PUZZLE	Toys	9	0	9	[0, 0, 0]	n/a	0	0	0	n/a	n/a	0.0	0	0	0	catFR2	0	R1026D
1029.977	1.6	1694377	WORD	n/a	wordpools/wordpool_categorized_EN.txt	BARBIE	Toys	10	0	9	[0, 0, 0]	n/a	0	0	0	n/a	n/a	0.0	0	0	0	catFR2	0	R1026D
1032.56	1.6	1698509	WORD	n/a	wordpools/wordpool_categorized_EN.txt	BUTTERFLY	Insects	11	0	9	[0, 0, 0]	n/a	0	0	0	n/a	n/a	0.0	0	0	0	catFR2	0	R1026D
1034.944	1.6	1702324	WORD	n/a	wordpools/wordpool_categorized_EN.txt	GNAT	Insects	12	0	9	[0, 0, 0]	n/a	0	0	0	n/a	n/a	0.0	0	0	0	catFR2	0	R1026D
1036.56	0.001	1704909	DISTRACT_START	n/a	n/a	n/a	n/a	-999	0	9	[0, 0, 0]	n/a	0	0	0	n/a	n/a	0.0	0	0	0	catFR2	0	R1026D
1036.561	0.016	1704911	START	n/a	n/a	n/a	n/a	-999	0	9	[-999, -999, -999]	n/a	0	0	0	n/a	n/a	0.0	0	0	0	catFR2	0	R1026D
1036.577	5.534	1704936	PROB	5.498	n/a	n/a	n/a	-999	0	9	[5, 7, 1]	13	0	0	0	n/a	n/a	0.0	0	0	0	catFR2	0	R1026D
1042.111	4.001	1713790	PROB	3.98	n/a	n/a	n/a	-999	0	9	[2, 3, 6]	11	0	0	0	n/a	n/a	0.0	0	0	0	catFR2	0	R1026D
1046.112	3.284	1720192	PROB	3.251	n/a	n/a	n/a	-999	0	9	[3, 1, 9]	13	0	0	0	n/a	n/a	0.0	0	0	0	catFR2	0	R1026D
1049.396	3.117	1725446	PROB	3.095	n/a	n/a	n/a	-999	0	9	[4, 4, 3]	11	0	0	0	n/a	n/a	0.0	0	0	0	catFR2	0	R1026D
1052.513	4.034	1730433	PROB	4.002	n/a	n/a	n/a	-999	0	9	[7, 8, 2]	17	0	0	0	n/a	n/a	0.0	0	0	0	catFR2	0	R1026D
1056.547	4.201	1736887	PROB	4.201	n/a	n/a	n/a	-999	0	9	[3, 1, 4]	8	0	0	0	n/a	n/a	0.0	0	0	0	catFR2	0	R1026D
1060.748	0.018	1743608	STOP	n/a	n/a	n/a	n/a	-999	0	9	[-999, -999, -999]	n/a	0	0	0	n/a	n/a	0.0	0	0	0	catFR2	0	R1026D
1060.766	1.118	1743637	DISTRACT_END	n/a	n/a	n/a	n/a	-999	0	9	[0, 0, 0]	n/a	0	0	0	n/a	n/a	0.0	0	0	0	catFR2	0	R1026D
1061.884	2.914	1745425	REC_START	n/a	n/a	n/a	n/a	-999	0	9	[0, 0, 0]	n/a	0	0	0	n/a	n/a	0.0	0	0	0	catFR2	0	R1026D
1064.798	2.054	1750088	REC_WORD	2.914	n/a	WALNUT	Trees	1	1	9	[0, 0, 0]	n/a	0	0	0	n/a	n/a	0.0	0	0	0	catFR2	0	R1026D
1066.852	2.919	1753374	REC_WORD	4.968	n/a	HICKORY	Trees	2	1	9	[0, 0, 0]	n/a	0	0	0	n/a	n/a	0.0	0	0	0	catFR2	0	R1026D
1069.771	1.625	1758044	REC_WORD	7.887	n/a	CHESTNUT	n/a	-999	0	9	[0, 0, 0]	n/a	0	0	0	n/a	n/a	0.0	0	0	0	catFR2	0	R1026D
1071.396	2.41	1760644	REC_WORD	9.512	n/a	WILLOW	n/a	-999	0	9	[0, 0, 0]	n/a	0	0	0	n/a	n/a	0.0	0	0	0	catFR2	0	R1026D
1073.806	2.306	1764500	REC_WORD	11.922	n/a	MOSQUITO	Insects	3	1	9	[0, 0, 0]	n/a	0	0	0	n/a	n/a	0.0	0	0	0	catFR2	0	R1026D
1076.112	11.278	1768189	REC_WORD	14.228	n/a	CRICKET	Insects	4	1	9	[0, 0, 0]	n/a	0	0	0	n/a	n/a	0.0	0	0	0	catFR2	0	R1026D
1087.39	4.504	1786233	REC_WORD	25.506	n/a	JELLO	n/a	-999	0	9	[0, 0, 0]	n/a	0	0	0	n/a	n/a	0.0	0	0	0	catFR2	0	R1026D
1091.894	3.244	1793439	REC_END	n/a	n/a	n/a	n/a	-999	0	9	[0, 0, 0]	n/a	0	0	0	n/a	n/a	0.0	0	0	0	catFR2	0	R1026D
1095.138	0.0	1798629	TRIAL	n/a	n/a	n/a	n/a	-999	0	10	[0, 0, 0]	n/a	0	1	0	n/a	n/a	0.0	0	0	0	catFR2	0	R1026D
1095.138	10.0	1798629	COUNTDOWN_START	n/a	n/a	n/a	n/a	-999	0	10	[0, 0, 0]	n/a	0	1	0	n/a	n/a	0.0	0	0	0	catFR2	0	R1026D
1105.566	0.007	1815313	COUNTDOWN_END	n/a	n/a	n/a	n/a	-999	0	10	[0, 0, 0]	n/a	0	1	0	n/a	n/a	0.0	0	0	0	catFR2	0	R1026D
1105.573	1.6	1815324	ORIENT	n/a	n/a	n/a	n/a	-999	0	10	[0, 0, 0]	n/a	0	1	0	n/a	n/a	0.0	0	0	0	catFR2	0	R1026D
1109.457	1.6	1821538	WORD	n/a	wordpools/wordpool_categorized_EN.txt	PAPER	OfficeSupplies	1	1	10	[0, 0, 0]	n/a	0	1	0	n/a	n/a	0.0	0	0	0	catFR2	0	R1026D
1111.975	1.6	1825567	WORD	n/a	wordpools/wordpool_categorized_EN.txt	BINDER	OfficeSupplies	2	1	10	[0, 0, 0]	n/a	0	1	0	n/a	n/a	0.0	0	0	0	catFR2	0	R1026D
1114.322	4.6	1829322	STIM_ON	n/a	n/a	n/a	n/a	-999	0	10	[0, 0, 0]	n/a	1	1	4600	LPIG9	LPIG10	1500.0	50	230	300	catFR2	0	R1026D
1114.524	1.6	1829645	WORD	n/a	wordpools/wordpool_categorized_EN.txt	MICROWAVE	Electronics	3	0	10	[0, 0, 0]	n/a	1	1	4600	LPIG9	LPIG10	1500.0	50	230	300	catFR2	0	R1026D
1116.926	1.6	1833488	WORD	n/a	wordpools/wordpool_categorized_EN.txt	RADIO	Electronics	4	0	10	[0, 0, 0]	n/a	1	1	4600	LPIG9	LPIG10	1500.0	50	230	300	catFR2	0	R1026D
1119.509	1.6	1837621	WORD	n/a	wordpools/wordpool_categorized_EN.txt	KNIFE	KitchenTools	5	0	10	[0, 0, 0]	n/a	0	1	0	n/a	n/a	0.0	0	0	0	catFR2	0	R1026D
1122.043	1.6	1841675	WORD	n/a	wordpools/wordpool_categorized_EN.txt	WHISK	KitchenTools	6	0	10	[0, 0, 0]	n/a	0	1	0	n/a	n/a	0.0	0	0	0	catFR2	0	R1026D
1124.256	4.6	1845216	STIM_ON	n/a	n/a	n/a	n/a	-999	0	10	[0, 0, 0]	n/a	1	1	4600	LPIG9	LPIG10	1500.0	50	230	300	catFR2	0	R1026D
1124.46	1.6	1845542	WORD	n/a	wordpools/wordpool_categorized_EN.txt	STEREO	Electronics	7	0	10	[0, 0, 0]	n/a	1	1	4600	LPIG9	LPIG10	1500.0	50	230	300	catFR2	0	R1026D
1126.861	1.6	1849383	WORD	n/a	wordpools/wordpool_categorized_EN.txt	PHONE	Electronics	8	0	10	[0, 0, 0]	n/a	1	1	4600	LPIG9	LPIG10	1500.0	50	230	300	catFR2	0	R1026D
1129.394	1.6	1853436	WORD	n/a	wordpools/wordpool_categorized_EN.txt	MARKER	OfficeSupplies	9	0	10	[0, 0, 0]	n/a	0	1	0	n/a	n/a	0.0	0	0	0	catFR2	0	R1026D
1131.994	1.6	1857596	WORD	n/a	wordpools/wordpool_categorized_EN.txt	PENCIL	OfficeSupplies	10	1	10	[0, 0, 0]	n/a	0	1	0	n/a	n/a	0.0	0	0	0	catFR2	0	R1026D
1134.324	4.6	1861324	STIM_ON	n/a	n/a	n/a	n/a	-999	0	10	[0, 0, 0]	n/a	1	1	4600	LPIG9	LPIG10	1500.0	50	230	300	catFR2	0	R1026D
1134.528	1.6	1861650	WORD	n/a	wordpools/wordpool_categorized_EN.txt	SPOON	KitchenTools	11	0	10	[0, 0, 0]	n/a	1	1	4600	LPIG9	LPIG10	1500.0	50	230	300	catFR2	0	R1026D
1136.98	1.6	1865573	WORD	n/a	wordpools/wordpool_categorized_EN.txt	LADLE	KitchenTools	12	0	10	[0, 0, 0]	n/a	1	1	4600	LPIG9	LPIG10	1500.0	50	230	300	catFR2	0	R1026D
1138.596	0.0	1868159	DISTRACT_START	n/a	n/a	n/a	n/a	-999	0	10	[0, 0, 0]	n/a	0	1	0	n/a	n/a	0.0	0	0	0	catFR2	0	R1026D
1138.596	0.016	1868159	START	n/a	n/a	n/a	n/a	-999	0	10	[-999, -999, -999]	n/a	0	1	0	n/a	n/a	0.0	0	0	0	catFR2	0	R1026D
1138.612	5.518	1868184	PROB	5.487	n/a	n/a	n/a	-999	0	10	[8, 7, 5]	20	0	1	0	n/a	n/a	0.0	0	0	0	catFR2	0	R1026D
1144.13	4.167	1877012	PROB	4.145	n/a	n/a	n/a	-999	0	10	[7, 6, 6]	21	0	1	0	n/a	n/a	0.0	0	0	0	catFR2	0	R1026D
1148.297	5.985	1883679	PROB	5.962	n/a	n/a	n/a	-999	0	10	[4, 3, 9]	16	0	1	0	n/a	n/a	0.0	0	0	0	catFR2	0	R1026D
1154.282	4.201	1893255	PROB	4.169	n/a	n/a	n/a	-999	0	10	[9, 3, 6]	18	0	1	0	n/a	n/a	0.0	0	0	0	catFR2	0	R1026D
1158.483	4.465	1899976	PROB	4.465	n/a	n/a	n/a	-999	0	10	[9, 9, 5]	23	0	1	0	n/a	n/a	0.0	0	0	0	catFR2	0	R1026D
1162.948	0.003	1907120	STOP	n/a	n/a	n/a	n/a	-999	0	10	[-999, -999, -999]	n/a	0	1	0	n/a	n/a	0.0	0	0	0	catFR2	0	R1026D
1162.951	1.217	1907125	DISTRACT_END	n/a	n/a	n/a	n/a	-999	0	10	[0, 0, 0]	n/a	0	1	0	n/a	n/a	0.0	0	0	0	catFR2	0	R1026D
1164.168	16.62	1909072	REC_START	n/a	n/a	n/a	n/a	-999	0	10	[0, 0, 0]	n/a	0	1	0	n/a	n/a	0.0	0	0	0	catFR2	0	R1026D
1180.788	1.397	1935662	REC_WORD	16.62	n/a	PAPER	OfficeSupplies	1	1	10	[0, 0, 0]	n/a	0	1	0	n/a	n/a	0.0	0	0	0	catFR2	0	R1026D
1182.185	10.42	1937897	REC_WORD	18.017	n/a	BINDER	OfficeSupplies	2	1	10	[0, 0, 0]	n/a	0	1	0	n/a	n/a	0.0	0	0	0	catFR2	0	R1026D
1192.605	1.258	1954569	REC_WORD	28.437	n/a	PENCIL	OfficeSupplies	10	1	10	[0, 0, 0]	n/a	0	1	0	n/a	n/a	0.0	0	0	0	catFR2	0	R1026D
1193.863	0.316	1956581	REC_WORD_VV	29.695	n/a	<>	n/a	-999	0	10	[0, 0, 0]	n/a	0	1	0	n/a	n/a	0.0	0	0	0	catFR2	0	R1026D
1194.179	5.696	1957087	REC_END	n/a	n/a	n/a	n/a	-999	0	10	[0, 0, 0]	n/a	0	1	0	n/a	n/a	0.0	0	0	0	catFR2	0	R1026D
1199.875	0.0	1966200	TRIAL	n/a	n/a	n/a	n/a	-999	0	11	[0, 0, 0]	n/a	0	1	0	n/a	n/a	0.0	0	0	0	catFR2	0	R1026D
1199.875	10.0	1966200	COUNTDOWN_START	n/a	n/a	n/a	n/a	-999	0	11	[0, 0, 0]	n/a	0	1	0	n/a	n/a	0.0	0	0	0	catFR2	0	R1026D
1210.303	0.006	1982884	COUNTDOWN_END	n/a	n/a	n/a	n/a	-999	0	11	[0, 0, 0]	n/a	0	1	0	n/a	n/a	0.0	0	0	0	catFR2	0	R1026D
1210.309	1.6	1982894	ORIENT	n/a	n/a	n/a	n/a	-999	0	11	[0, 0, 0]	n/a	0	1	0	n/a	n/a	0.0	0	0	0	catFR2	0	R1026D
1213.881	4.6	1988609	STIM_ON	n/a	n/a	n/a	n/a	-999	0	11	[0, 0, 0]	n/a	1	1	4600	LPIG9	LPIG10	1500.0	50	230	300	catFR2	0	R1026D
1214.093	1.6	1988948	WORD	n/a	wordpools/wordpool_categorized_EN.txt	PANDA	Zoo	1	1	11	[0, 0, 0]	n/a	1	1	4600	LPIG9	LPIG10	1500.0	50	230	300	catFR2	0	R1026D
1216.577	1.6	1992922	WORD	n/a	wordpools/wordpool_categorized_EN.txt	ELEPHANT	Zoo	2	1	11	[0, 0, 0]	n/a	1	1	4600	LPIG9	LPIG10	1500.0	50	230	300	catFR2	0	R1026D
1219.177	1.6	1997082	WORD	n/a	wordpools/wordpool_categorized_EN.txt	ONION	Vegetables	3	1	11	[0, 0, 0]	n/a	0	1	0	n/a	n/a	0.0	0	0	0	catFR2	0	R1026D
1221.644	1.6	2001029	WORD	n/a	wordpools/wordpool_categorized_EN.txt	BROCCOLI	Vegetables	4	0	11	[0, 0, 0]	n/a	0	1	0	n/a	n/a	0.0	0	0	0	catFR2	0	R1026D
1224.024	4.6	2004837	STIM_ON	n/a	n/a	n/a	n/a	-999	0	11	[0, 0, 0]	n/a	1	1	4600	LPIG9	LPIG10	1500.0	50	230	300	catFR2	0	R1026D
1224.228	1.6	2005163	WORD	n/a	wordpools/wordpool_categorized_EN.txt	SODA	Beverages	5	0	11	[0, 0, 0]	n/a	1	1	4600	LPIG9	LPIG10	1500.0	50	230	300	catFR2	0	R1026D
1226.713	1.6	2009139	WORD	n/a	wordpools/wordpool_categorized_EN.txt	TEA	Beverages	6	0	11	[0, 0, 0]	n/a	1	1	4600	LPIG9	LPIG10	1500.0	50	230	300	catFR2	0	R1026D
1229.095	1.6	2012950	WORD	n/a	wordpools/wordpool_categorized_EN.txt	CELERY	Vegetables	7	1	11	[0, 0, 0]	n/a	0	1	0	n/a	n/a	0.0	0	0	0	catFR2	0	R1026D
1231.479	1.6	2016764	WORD	n/a	wordpools/wordpool_categorized_EN.txt	CUCUMBER	Vegetables	8	0	11	[0, 0, 0]	n/a	0	1	0	n/a	n/a	0.0	0	0	0	catFR2	0	R1026D
1233.899	4.6	2020636	STIM_ON	n/a	n/a	n/a	n/a	-999	0	11	[0, 0, 0]	n/a	1	1	4600	LPIG9	LPIG10	1500.0	50	230	300	catFR2	0	R1026D
1234.113	1.6	2020978	WORD	n/a	wordpools/wordpool_categorized_EN.txt	BEAR	Zoo	9	0	11	[0, 0, 0]	n/a	1	1	4600	LPIG9	LPIG10	1500.0	50	230	300	catFR2	0	R1026D
1236.513	1.6	2024818	WORD	n/a	wordpools/wordpool_categorized_EN.txt	LION	Zoo	10	0	11	[0, 0, 0]	n/a	1	1	4600	LPIG9	LPIG10	1500.0	50	230	300	catFR2	0	R1026D
1239.131	1.6	2029007	WORD	n/a	wordpools/wordpool_categorized_EN.txt	COFFEE	Beverages	11	0	11	[0, 0, 0]	n/a	0	1	0	n/a	n/a	0.0	0	0	0	catFR2	0	R1026D
1241.531	1.6	2032846	WORD	n/a	wordpools/wordpool_categorized_EN.txt	MILK	Beverages	12	0	11	[0, 0, 0]	n/a	0	1	0	n/a	n/a	0.0	0	0	0	catFR2	0	R1026D
1243.148	0.001	2035433	DISTRACT_START	n/a	n/a	n/a	n/a	-999	0	11	[0, 0, 0]	n/a	0	1	0	n/a	n/a	0.0	0	0	0	catFR2	0	R1026D
1243.149	0.016	2035435	START	n/a	n/a	n/a	n/a	-999	0	11	[-999, -999, -999]	n/a	0	1	0	n/a	n/a	0.0	0	0	0	catFR2	0	R1026D
1243.165	8.885	2035461	PROB	8.854	n/a	n/a	n/a	-999	0	11	[8, 9, 9]	27	0	1	0	n/a	n/a	0.0	0	0	0	catFR2	0	R1026D
1252.05	4.434	2049676	PROB	4.409	n/a	n/a	n/a	-999	0	11	[6, 6, 1]	13	0	1	0	n/a	n/a	0.0	0	0	0	catFR2	0	R1026D
1256.484	3.684	2056770	PROB	3.663	n/a	n/a	n/a	-999	0	11	[4, 2, 6]	12	0	1	0	n/a	n/a	0.0	0	0	0	catFR2	0	R1026D
1260.168	4.307	2062664	PROB	4.307	n/a	n/a	n/a	-999	0	11	[9, 8, 4]	21	0	1	0	n/a	n/a	0.0	0	0	0	catFR2	0	R1026D
1264.475	0.01	2069555	STOP	n/a	n/a	n/a	n/a	-999	0	11	[-999, -999, -999]	n/a	0	1	0	n/a	n/a	0.0	0	0	0	catFR2	0	R1026D
1264.485	1.034	2069571	DISTRACT_END	n/a	n/a	n/a	n/a	-999	0	11	[0, 0, 0]	n/a	0	1	0	n/a	n/a	0.0	0	0	0	catFR2	0	R1026D
1265.519	1.625	2071225	REC_START	n/a	n/a	n/a	n/a	-999	0	11	[0, 0, 0]	n/a	0	1	0	n/a	n/a	0.0	0	0	0	catFR2	0	R1026D
1267.144	1.256	2073825	REC_WORD	1.625	n/a	PANDA	Zoo	1	1	11	[0, 0, 0]	n/a	0	1	0	n/a	n/a	0.0	0	0	0	catFR2	0	R1026D
1268.4	3.513	2075835	REC_WORD	2.881	n/a	ELEPHANT	Zoo	2	1	11	[0, 0, 0]	n/a	0	1	0	n/a	n/a	0.0	0	0	0	catFR2	0	R1026D
1271.913	21.667	2081455	REC_WORD	6.394	n/a	CELERY	Vegetables	7	1	11	[0, 0, 0]	n/a	0	1	0	n/a	n/a	0.0	0	0	0	catFR2	0	R1026D
1293.58	1.954	2116121	REC_WORD	28.061	n/a	ONION	Vegetables	3	1	11	[0, 0, 0]	n/a	0	1	0	n/a	n/a	0.0	0	0	0	catFR2	0	R1026D
1295.534	6.293	2119247	REC_END	n/a	n/a	n/a	n/a	-999	0	11	[0, 0, 0]	n/a	0	1	0	n/a	n/a	0.0	0	0	0	catFR2	0	R1026D
1301.827	0.0	2129315	TRIAL	n/a	n/a	n/a	n/a	-999	0	12	[0, 0, 0]	n/a	0	0	0	n/a	n/a	0.0	0	0	0	catFR2	0	R1026D
1301.827	10.0	2129315	COUNTDOWN_START	n/a	n/a	n/a	n/a	-999	0	12	[0, 0, 0]	n/a	0	0	0	n/a	n/a	0.0	0	0	0	catFR2	0	R1026D
1312.255	0.006	2145999	COUNTDOWN_END	n/a	n/a	n/a	n/a	-999	0	12	[0, 0, 0]	n/a	0	0	0	n/a	n/a	0.0	0	0	0	catFR2	0	R1026D
1312.261	1.6	2146009	ORIENT	n/a	n/a	n/a	n/a	-999	0	12	[0, 0, 0]	n/a	0	0	0	n/a	n/a	0.0	0	0	0	catFR2	0	R1026D
1316.228	1.6	2152356	WORD	n/a	wordpools/wordpool_categorized_EN.txt	CROWBAR	Tools	1	0	12	[0, 0, 0]	n/a	0	0	0	n/a	n/a	0.0	0	0	0	catFR2	0	R1026D
1318.663	1.6	2156251	WORD	n/a	wordpools/wordpool_categorized_EN.txt	LEVEL	Tools	2	1	12	[0, 0, 0]	n/a	0	0	0	n/a	n/a	0.0	0	0	0	catFR2	0	R1026D
1321.262	1.6	2160410	WORD	n/a	wordpools/wordpool_categorized_EN.txt	CHICKEN	FarmAnimals	3	0	12	[0, 0, 0]	n/a	0	0	0	n/a	n/a	0.0	0	0	0	catFR2	0	R1026D
1323.681	1.6	2164280	WORD	n/a	wordpools/wordpool_categorized_EN.txt	SHEEP	FarmAnimals	4	0	12	[0, 0, 0]	n/a	0	0	0	n/a	n/a	0.0	0	0	0	catFR2	0	R1026D
1326.163	1.6	2168251	WORD	n/a	wordpools/wordpool_categorized_EN.txt	TRUMPET	Instruments	5	0	12	[0, 0, 0]	n/a	0	0	0	n/a	n/a	0.0	0	0	0	catFR2	0	R1026D
1328.564	1.6	2172092	WORD	n/a	wordpools/wordpool_categorized_EN.txt	BASS	Instruments	6	0	12	[0, 0, 0]	n/a	0	0	0	n/a	n/a	0.0	0	0	0	catFR2	0	R1026D
1331.131	1.6	2176199	WORD	n/a	wordpools/wordpool_categorized_EN.txt	PIG	FarmAnimals	7	0	12	[0, 0, 0]	n/a	0	0	0	n/a	n/a	0.0	0	0	0	catFR2	0	R1026D
1333.548	1.6	2180066	WORD	n/a	wordpools/wordpool_categorized_EN.txt	BULL	FarmAnimals	8	0	12	[0, 0, 0]	n/a	0	0	0	n/a	n/a	0.0	0	0	0	catFR2	0	R1026D
1336.132	1.6	2184200	WORD	n/a	wordpools/wordpool_categorized_EN.txt	WRENCH	Tools	9	0	12	[0, 0, 0]	n/a	0	0	0	n/a	n/a	0.0	0	0	0	catFR2	0	R1026D
1338.582	1.6	2188120	WORD	n/a	wordpools/wordpool_categorized_EN.txt	SAW	Tools	10	1	12	[0, 0, 0]	n/a	0	0	0	n/a	n/a	0.0	0	0	0	catFR2	0	R1026D
1341.099	1.6	2192147	WORD	n/a	wordpools/wordpool_categorized_EN.txt	BANJO	Instruments	11	0	12	[0, 0, 0]	n/a	0	0	0	n/a	n/a	0.0	0	0	0	catFR2	0	R1026D
1343.6	1.6	2196149	WORD	n/a	wordpools/wordpool_categorized_EN.txt	GUITAR	Instruments	12	0	12	[0, 0, 0]	n/a	0	0	0	n/a	n/a	0.0	0	0	0	catFR2	0	R1026D
1345.217	0.001	2198736	DISTRACT_START	n/a	n/a	n/a	n/a	-999	0	12	[0, 0, 0]	n/a	0	0	0	n/a	n/a	0.0	0	0	0	catFR2	0	R1026D
1345.218	0.015	2198737	START	n/a	n/a	n/a	n/a	-999	0	12	[-999, -999, -999]	n/a	0	0	0	n/a	n/a	0.0	0	0	0	catFR2	0	R1026D
1345.233	3.401	2198761	PROB	3.378	n/a	n/a	n/a	-999	0	12	[7, 8, 1]	16	0	0	0	n/a	n/a	0.0	0	0	0	catFR2	0	R1026D
1348.634	3.634	2204203	PROB	3.601	n/a	n/a	n/a	-999	0	12	[1, 2, 4]	7	0	0	0	n/a	n/a	0.0	0	0	0	catFR2	0	R1026D
1352.268	3.702	2210017	PROB	3.672	n/a	n/a	n/a	-999	0	12	[8, 2, 8]	18	0	0	0	n/a	n/a	0.0	0	0	0	catFR2	0	R1026D
1355.97	5.784	2215940	PROB	5.754	n/a	n/a	n/a	-999	0	12	[2, 1, 8]	11	0	0	0	n/a	n/a	0.0	0	0	0	catFR2	0	R1026D
1361.754	4.321	2225194	PROB	4.321	n/a	n/a	n/a	-999	0	12	[1, 7, 9]	17	0	0	0	n/a	n/a	0.0	0	0	0	catFR2	0	R1026D
1366.075	0.012	2232107	STOP	n/a	n/a	n/a	n/a	-999	0	12	[-999, -999, -999]	n/a	0	0	0	n/a	n/a	0.0	0	0	0	catFR2	0	R1026D
1366.087	1.051	2232126	DISTRACT_END	n/a	n/a	n/a	n/a	-999	0	12	[0, 0, 0]	n/a	0	0	0	n/a	n/a	0.0	0	0	0	catFR2	0	R1026D
1367.138	3.631	2233807	REC_START	n/a	n/a	n/a	n/a	-999	0	12	[0, 0, 0]	n/a	0	0	0	n/a	n/a	0.0	0	0	0	catFR2	0	R1026D
1370.769	1.305	2239617	REC_WORD	3.631	n/a	HAMMER	n/a	-999	0	12	[0, 0, 0]	n/a	0	0	0	n/a	n/a	0.0	0	0	0	catFR2	0	R1026D
1372.074	1.862	2241705	REC_WORD	4.936	n/a	LEVEL	Tools	2	1	12	[0, 0, 0]	n/a	0	0	0	n/a	n/a	0.0	0	0	0	catFR2	0	R1026D
1373.936	23.217	2244684	REC_WORD	6.798	n/a	SAW	Tools	10	1	12	[0, 0, 0]	n/a	0	0	0	n/a	n/a	0.0	0	0	0	catFR2	0	R1026D
1397.153	4.424	2281829	REC_END	n/a	n/a	n/a	n/a	-999	0	12	[0, 0, 0]	n/a	0	0	0	n/a	n/a	0.0	0	0	0	catFR2	0	R1026D
1401.577	0.0	2288907	TRIAL	n/a	n/a	n/a	n/a	-999	0	13	[0, 0, 0]	n/a	0	1	0	n/a	n/a	0.0	0	0	0	catFR2	0	R1026D
1401.577	10.0	2288907	COUNTDOWN_START	n/a	n/a	n/a	n/a	-999	0	13	[0, 0, 0]	n/a	0	1	0	n/a	n/a	0.0	0	0	0	catFR2	0	R1026D
1412.005	0.007	2305591	COUNTDOWN_END	n/a	n/a	n/a	n/a	-999	0	13	[0, 0, 0]	n/a	0	1	0	n/a	n/a	0.0	0	0	0	catFR2	0	R1026D
1412.012	1.6	2305602	ORIENT	n/a	n/a	n/a	n/a	-999	0	13	[0, 0, 0]	n/a	0	1	0	n/a	n/a	0.0	0	0	0	catFR2	0	R1026D
1415.647	1.6	2311418	WORD	n/a	wordpools/wordpool_categorized_EN.txt	ORCHID	Flowers	1	1	13	[0, 0, 0]	n/a	0	1	0	n/a	n/a	0.0	0	0	0	catFR2	0	R1026D
1418.247	1.6	2315578	WORD	n/a	wordpools/wordpool_categorized_EN.txt	DAISY	Flowers	2	0	13	[0, 0, 0]	n/a	0	1	0	n/a	n/a	0.0	0	0	0	catFR2	0	R1026D
1420.477	4.6	2319146	STIM_ON	n/a	n/a	n/a	n/a	-999	0	13	[0, 0, 0]	n/a	1	1	4600	LPIG9	LPIG10	1500.0	50	230	300	catFR2	0	R1026D
1420.682	1.6	2319474	WORD	n/a	wordpools/wordpool_categorized_EN.txt	CORN	Vegetables	3	0	13	[0, 0, 0]	n/a	1	1	4600	LPIG9	LPIG10	1500.0	50	230	300	catFR2	0	R1026D
1423.214	1.6	2323525	WORD	n/a	wordpools/wordpool_categorized_EN.txt	SPINACH	Vegetables	4	0	13	[0, 0, 0]	n/a	1	1	4600	LPIG9	LPIG10	1500.0	50	230	300	catFR2	0	R1026D
1425.766	1.6	2327608	WORD	n/a	wordpools/wordpool_categorized_EN.txt	PLIERS	Tools	5	0	13	[0, 0, 0]	n/a	0	1	0	n/a	n/a	0.0	0	0	0	catFR2	0	R1026D
1428.232	1.6	2331553	WORD	n/a	wordpools/wordpool_categorized_EN.txt	HAMMER	Tools	6	0	13	[0, 0, 0]	n/a	0	1	0	n/a	n/a	0.0	0	0	0	catFR2	0	R1026D
1430.427	4.6	2335065	STIM_ON	n/a	n/a	n/a	n/a	-999	0	13	[0, 0, 0]	n/a	1	1	4600	LPIG9	LPIG10	1500.0	50	230	300	catFR2	0	R1026D
1430.633	1.6	2335394	WORD	n/a	wordpools/wordpool_categorized_EN.txt	CARROT	Vegetables	7	0	13	[0, 0, 0]	n/a	1	1	4600	LPIG9	LPIG10	1500.0	50	230	300	catFR2	0	R1026D
1433.15	1.6	2339421	WORD	n/a	wordpools/wordpool_categorized_EN.txt	CAULIFLOWER	Vegetables	8	0	13	[0, 0, 0]	n/a	1	1	4600	LPIG9	LPIG10	1500.0	50	230	300	catFR2	0	R1026D
1435.684	1.6	2343476	WORD	n/a	wordpools/wordpool_categorized_EN.txt	SUNFLOWER	Flowers	9	0	13	[0, 0, 0]	n/a	0	1	0	n/a	n/a	0.0	0	0	0	catFR2	0	R1026D
1438.167	1.6	2347448	WORD	n/a	wordpools/wordpool_categorized_EN.txt	TULIP	Flowers	10	0	13	[0, 0, 0]	n/a	0	1	0	n/a	n/a	0.0	0	0	0	catFR2	0	R1026D
1440.336	4.6	2350918	STIM_ON	n/a	n/a	n/a	n/a	-999	0	13	[0, 0, 0]	n/a	1	1	4600	LPIG9	LPIG10	1500.0	50	230	300	catFR2	0	R1026D
1440.551	1.6	2351262	WORD	n/a	wordpools/wordpool_categorized_EN.txt	SHOVEL	Tools	11	0	13	[0, 0, 0]	n/a	1	1	4600	LPIG9	LPIG10	1500.0	50	230	300	catFR2	0	R1026D
1442.986	1.6	2355158	WORD	n/a	wordpools/wordpool_categorized_EN.txt	RATCHET	Tools	12	0	13	[0, 0, 0]	n/a	1	1	4600	LPIG9	LPIG10	1500.0	50	230	300	catFR2	0	R1026D
1444.602	0.001	2357744	DISTRACT_START	n/a	n/a	n/a	n/a	-999	0	13	[0, 0, 0]	n/a	0	1	0	n/a	n/a	0.0	0	0	0	catFR2	0	R1026D
1444.603	0.015	2357745	START	n/a	n/a	n/a	n/a	-999	0	13	[-999, -999, -999]	n/a	0	1	0	n/a	n/a	0.0	0	0	0	catFR2	0	R1026D
1444.618	3.468	2357769	PROB	3.441	n/a	n/a	n/a	-999	0	13	[6, 3, 9]	18	0	1	0	n/a	n/a	0.0	0	0	0	catFR2	0	R1026D
1448.086	4.885	2363318	PROB	4.854	n/a	n/a	n/a	-999	0	13	[6, 2, 9]	17	0	1	0	n/a	n/a	0.0	0	0	0	catFR2	0	R1026D
1452.971	3.316	2371133	PROB	3.288	n/a	n/a	n/a	-999	0	13	[1, 2, 8]	11	0	1	0	n/a	n/a	0.0	0	0	0	catFR2	0	R1026D
1456.287	3.101	2376439	PROB	3.068	n/a	n/a	n/a	-999	0	13	[3, 3, 2]	8	0	1	0	n/a	n/a	0.0	0	0	0	catFR2	0	R1026D
1459.388	10.215	2381400	PROB	10.215	n/a	n/a	n/a	-999	0	13	[4, 7, 7]	24	0	1	0	n/a	n/a	0.0	0	0	0	catFR2	0	R1026D
1469.603	0.02	2397743	STOP	n/a	n/a	n/a	n/a	-999	0	13	[-999, -999, -999]	n/a	0	1	0	n/a	n/a	0.0	0	0	0	catFR2	0	R1026D
1469.623	1.152	2397775	DISTRACT_END	n/a	n/a	n/a	n/a	-999	0	13	[0, 0, 0]	n/a	0	1	0	n/a	n/a	0.0	0	0	0	catFR2	0	R1026D
1470.775	2.375	2399618	REC_START	n/a	n/a	n/a	n/a	-999	0	13	[0, 0, 0]	n/a	0	1	0	n/a	n/a	0.0	0	0	0	catFR2	0	R1026D
1473.15	0.981	2403418	REC_WORD	2.375	n/a	ORCHID	Flowers	1	1	13	[0, 0, 0]	n/a	0	1	0	n/a	n/a	0.0	0	0	0	catFR2	0	R1026D
1474.131	11.348	2404988	REC_WORD	3.356	n/a	LILY	n/a	-999	0	13	[0, 0, 0]	n/a	0	1	0	n/a	n/a	0.0	0	0	0	catFR2	0	R1026D
1485.479	4.957	2423144	REC_WORD	14.704	n/a	CUCUMBER	n/a	-999	0	13	[0, 0, 0]	n/a	0	1	0	n/a	n/a	0.0	0	0	0	catFR2	0	R1026D
1490.436	3.643	2431074	REC_WORD	19.661	n/a	MELON	n/a	-999	0	13	[0, 0, 0]	n/a	0	1	0	n/a	n/a	0.0	0	0	0	catFR2	0	R1026D
1494.079	6.707	2436903	REC_WORD	23.304	n/a	SAW	n/a	-999	0	13	[0, 0, 0]	n/a	0	1	0	n/a	n/a	0.0	0	0	0	catFR2	0	R1026D
1500.786	20.73	2447634	REC_END	n/a	n/a	n/a	n/a	-999	0	13	[0, 0, 0]	n/a	0	1	0	n/a	n/a	0.0	0	0	0	catFR2	0	R1026D
1521.516	0.0	2480800	TRIAL	n/a	n/a	n/a	n/a	-999	0	14	[0, 0, 0]	n/a	0	1	0	n/a	n/a	0.0	0	0	0	catFR2	0	R1026D
1521.516	10.0	2480800	COUNTDOWN_START	n/a	n/a	n/a	n/a	-999	0	14	[0, 0, 0]	n/a	0	1	0	n/a	n/a	0.0	0	0	0	catFR2	0	R1026D
1531.944	0.008	2497484	COUNTDOWN_END	n/a	n/a	n/a	n/a	-999	0	14	[0, 0, 0]	n/a	0	1	0	n/a	n/a	0.0	0	0	0	catFR2	0	R1026D
1531.952	1.6	2497497	ORIENT	n/a	n/a	n/a	n/a	-999	0	14	[0, 0, 0]	n/a	0	1	0	n/a	n/a	0.0	0	0	0	catFR2	0	R1026D
1535.616	4.6	2503359	STIM_ON	n/a	n/a	n/a	n/a	-999	0	14	[0, 0, 0]	n/a	1	1	4600	LPIG9	LPIG10	1500.0	50	230	300	catFR2	0	R1026D
1535.82	1.6	2503685	WORD	n/a	wordpools/wordpool_categorized_EN.txt	ZEBRA	Zoo	1	1	14	[0, 0, 0]	n/a	1	1	4600	LPIG9	LPIG10	1500.0	50	230	300	catFR2	0	R1026D
1538.269	1.6	2507603	WORD	n/a	wordpools/wordpool_categorized_EN.txt	CHIMPANZEE	Zoo	2	1	14	[0, 0, 0]	n/a	1	1	4600	LPIG9	LPIG10	1500.0	50	230	300	catFR2	0	R1026D
1540.787	1.6	2511632	WORD	n/a	wordpools/wordpool_categorized_EN.txt	SHIRT	Clothing	3	0	14	[0, 0, 0]	n/a	0	1	0	n/a	n/a	0.0	0	0	0	catFR2	0	R1026D
1543.22	1.6	2515525	WORD	n/a	wordpools/wordpool_categorized_EN.txt	PANTS	Clothing	4	1	14	[0, 0, 0]	n/a	0	1	0	n/a	n/a	0.0	0	0	0	catFR2	0	R1026D
1545.491	4.6	2519158	STIM_ON	n/a	n/a	n/a	n/a	-999	0	14	[0, 0, 0]	n/a	1	1	4600	LPIG9	LPIG10	1500.0	50	230	300	catFR2	0	R1026D
1545.705	1.6	2519500	WORD	n/a	wordpools/wordpool_categorized_EN.txt	MIXER	Appliances	5	0	14	[0, 0, 0]	n/a	1	1	4600	LPIG9	LPIG10	1500.0	50	230	300	catFR2	0	R1026D
1548.104	1.6	2523339	WORD	n/a	wordpools/wordpool_categorized_EN.txt	BLENDER	Appliances	6	1	14	[0, 0, 0]	n/a	1	1	4600	LPIG9	LPIG10	1500.0	50	230	300	catFR2	0	R1026D
1550.521	1.6	2527206	WORD	n/a	wordpools/wordpool_categorized_EN.txt	GIRAFFE	Zoo	7	1	14	[0, 0, 0]	n/a	0	1	0	n/a	n/a	0.0	0	0	0	catFR2	0	R1026D
1553.088	1.6	2531313	WORD	n/a	wordpools/wordpool_categorized_EN.txt	ORANGUTAN	Zoo	8	1	14	[0, 0, 0]	n/a	0	1	0	n/a	n/a	0.0	0	0	0	catFR2	0	R1026D
1555.283	4.6	2534824	STIM_ON	n/a	n/a	n/a	n/a	-999	0	14	[0, 0, 0]	n/a	1	1	4600	LPIG9	LPIG10	1500.0	50	230	300	catFR2	0	R1026D
1555.489	1.6	2535154	WORD	n/a	wordpools/wordpool_categorized_EN.txt	DISHWASHER	Appliances	9	0	14	[0, 0, 0]	n/a	1	1	4600	LPIG9	LPIG10	1500.0	50	230	300	catFR2	0	R1026D
1558.023	1.6	2539208	WORD	n/a	wordpools/wordpool_categorized_EN.txt	OVEN	Appliances	10	0	14	[0, 0, 0]	n/a	1	1	4600	LPIG9	LPIG10	1500.0	50	230	300	catFR2	0	R1026D
1560.623	1.6	2543368	WORD	n/a	wordpools/wordpool_categorized_EN.txt	SKIRT	Clothing	11	0	14	[0, 0, 0]	n/a	0	1	0	n/a	n/a	0.0	0	0	0	catFR2	0	R1026D
1563.09	1.6	2547315	WORD	n/a	wordpools/wordpool_categorized_EN.txt	BLOUSE	Clothing	12	0	14	[0, 0, 0]	n/a	0	1	0	n/a	n/a	0.0	0	0	0	catFR2	0	R1026D
1564.691	0.001	2549877	DISTRACT_START	n/a	n/a	n/a	n/a	-999	0	14	[0, 0, 0]	n/a	0	1	0	n/a	n/a	0.0	0	0	0	catFR2	0	R1026D
1564.692	0.016	2549878	START	n/a	n/a	n/a	n/a	-999	0	14	[-999, -999, -999]	n/a	0	1	0	n/a	n/a	0.0	0	0	0	catFR2	0	R1026D
1564.708	3.633	2549904	PROB	3.607	n/a	n/a	n/a	-999	0	14	[1, 8, 8]	17	0	1	0	n/a	n/a	0.0	0	0	0	catFR2	0	R1026D
1568.341	4.868	2555716	PROB	4.846	n/a	n/a	n/a	-999	0	14	[4, 2, 3]	9	0	1	0	n/a	n/a	0.0	0	0	0	catFR2	0	R1026D
1573.209	6.334	2563505	PROB	6.298	n/a	n/a	n/a	-999	0	14	[7, 8, 7]	22	0	1	0	n/a	n/a	0.0	0	0	0	catFR2	0	R1026D
1579.543	5.381	2573639	PROB	5.381	n/a	n/a	n/a	-999	0	14	[8, 3, 8]	19	0	1	0	n/a	n/a	0.0	0	0	0	catFR2	0	R1026D
1584.924	0.004	2582248	STOP	n/a	n/a	n/a	n/a	-999	0	14	[-999, -999, -999]	n/a	0	1	0	n/a	n/a	0.0	0	0	0	catFR2	0	R1026D
1584.928	1.151	2582254	DISTRACT_END	n/a	n/a	n/a	n/a	-999	0	14	[0, 0, 0]	n/a	0	1	0	n/a	n/a	0.0	0	0	0	catFR2	0	R1026D
1586.079	6.499	2584096	REC_START	n/a	n/a	n/a	n/a	-999	0	14	[0, 0, 0]	n/a	0	1	0	n/a	n/a	0.0	0	0	0	catFR2	0	R1026D
1592.578	3.763	2594493	REC_WORD	6.499	n/a	ZEBRA	Zoo	1	1	14	[0, 0, 0]	n/a	0	1	0	n/a	n/a	0.0	0	0	0	catFR2	0	R1026D
1596.341	1.068	2600514	REC_WORD	10.262	n/a	ELEPHANT	n/a	-999	0	14	[0, 0, 0]	n/a	0	1	0	n/a	n/a	0.0	0	0	0	catFR2	0	R1026D
1597.409	1.985	2602223	REC_WORD	11.33	n/a	CHIMPANZEE	Zoo	2	1	14	[0, 0, 0]	n/a	0	1	0	n/a	n/a	0.0	0	0	0	catFR2	0	R1026D
1599.394	1.302	2605399	REC_WORD	13.315	n/a	ORANGUTAN	Zoo	8	1	14	[0, 0, 0]	n/a	0	1	0	n/a	n/a	0.0	0	0	0	catFR2	0	R1026D
1600.696	2.887	2607482	REC_WORD	14.617	n/a	GIRAFFE	Zoo	7	1	14	[0, 0, 0]	n/a	0	1	0	n/a	n/a	0.0	0	0	0	catFR2	0	R1026D
1603.583	1.729	2612101	REC_WORD	17.504	n/a	SHORTS	n/a	-999	0	14	[0, 0, 0]	n/a	0	1	0	n/a	n/a	0.0	0	0	0	catFR2	0	R1026D
1605.312	1.087	2614867	REC_WORD_VV	19.233	n/a	<>	n/a	-999	0	14	[0, 0, 0]	n/a	0	1	0	n/a	n/a	0.0	0	0	0	catFR2	0	R1026D
1606.399	4.231	2616606	REC_WORD	20.32	n/a	PANTS	Clothing	4	1	14	[0, 0, 0]	n/a	0	1	0	n/a	n/a	0.0	0	0	0	catFR2	0	R1026D
1610.63	5.46	2623375	REC_WORD	24.551	n/a	BLENDER	Appliances	6	1	14	[0, 0, 0]	n/a	0	1	0	n/a	n/a	0.0	0	0	0	catFR2	0	R1026D
1616.09	5.011	2632111	REC_END	n/a	n/a	n/a	n/a	-999	0	14	[0, 0, 0]	n/a	0	1	0	n/a	n/a	0.0	0	0	0	catFR2	0	R1026D
1621.101	10.0	2640128	COUNTDOWN_START	n/a	n/a	n/a	n/a	-999	0	15	[0, 0, 0]	n/a	0	1	0	n/a	n/a	0.0	0	0	0	catFR2	0	R1026D
1621.101	10.428	2640128	TRIAL	n/a	n/a	n/a	n/a	-999	0	15	[0, 0, 0]	n/a	0	1	0	n/a	n/a	0.0	0	0	0	catFR2	0	R1026D
1631.529	0.007	2656812	COUNTDOWN_END	n/a	n/a	n/a	n/a	-999	0	15	[0, 0, 0]	n/a	0	1	0	n/a	n/a	0.0	0	0	0	catFR2	0	R1026D
1631.536	1.6	2656823	ORIENT	n/a	n/a	n/a	n/a	-999	0	15	[0, 0, 0]	n/a	0	1	0	n/a	n/a	0.0	0	0	0	catFR2	0	R1026D
1635.04	4.6	2662429	STIM_ON	n/a	n/a	n/a	n/a	-999	0	15	[0, 0, 0]	n/a	1	1	4600	LPIG9	LPIG10	1500.0	50	230	300	catFR2	0	R1026D
1635.253	1.6	2662770	WORD	n/a	wordpools/wordpool_categorized_EN.txt	LAMB	FarmAnimals	1	1	15	[0, 0, 0]	n/a	1	1	4600	LPIG9	LPIG10	1500.0	50	230	300	catFR2	0	R1026D
1637.788	1.6	2666826	WORD	n/a	wordpools/wordpool_categorized_EN.txt	HEN	FarmAnimals	2	1	15	[0, 0, 0]	n/a	1	1	4600	LPIG9	LPIG10	1500.0	50	230	300	catFR2	0	R1026D
1640.221	1.6	2670718	WORD	n/a	wordpools/wordpool_categorized_EN.txt	RUM	Beverages	3	1	15	[0, 0, 0]	n/a	0	1	0	n/a	n/a	0.0	0	0	0	catFR2	0	R1026D
1642.756	1.6	2674774	WORD	n/a	wordpools/wordpool_categorized_EN.txt	LEMONADE	Beverages	4	1	15	[0, 0, 0]	n/a	0	1	0	n/a	n/a	0.0	0	0	0	catFR2	0	R1026D
1645.127	4.6	2678568	STIM_ON	n/a	n/a	n/a	n/a	-999	0	15	[0, 0, 0]	n/a	1	1	4600	LPIG9	LPIG10	1500.0	50	230	300	catFR2	0	R1026D
1645.339	1.6	2678907	WORD	n/a	wordpools/wordpool_categorized_EN.txt	FLY	Insects	5	0	15	[0, 0, 0]	n/a	1	1	4600	LPIG9	LPIG10	1500.0	50	230	300	catFR2	0	R1026D
1647.973	1.6	2683121	WORD	n/a	wordpools/wordpool_categorized_EN.txt	ROACH	Insects	6	1	15	[0, 0, 0]	n/a	1	1	4600	LPIG9	LPIG10	1500.0	50	230	300	catFR2	0	R1026D
1650.39	1.6	2686988	WORD	n/a	wordpools/wordpool_categorized_EN.txt	JUICE	Beverages	7	0	15	[0, 0, 0]	n/a	0	1	0	n/a	n/a	0.0	0	0	0	catFR2	0	R1026D
1652.808	1.6	2690857	WORD	n/a	wordpools/wordpool_categorized_EN.txt	CIDER	Beverages	8	0	15	[0, 0, 0]	n/a	0	1	0	n/a	n/a	0.0	0	0	0	catFR2	0	R1026D
1655.06	4.6	2694460	STIM_ON	n/a	n/a	n/a	n/a	-999	0	15	[0, 0, 0]	n/a	1	1	4600	LPIG9	LPIG10	1500.0	50	230	300	catFR2	0	R1026D
1655.274	1.6	2694802	WORD	n/a	wordpools/wordpool_categorized_EN.txt	HORSE	FarmAnimals	9	1	15	[0, 0, 0]	n/a	1	1	4600	LPIG9	LPIG10	1500.0	50	230	300	catFR2	0	R1026D
1657.658	1.6	2698616	WORD	n/a	wordpools/wordpool_categorized_EN.txt	ROOSTER	FarmAnimals	10	0	15	[0, 0, 0]	n/a	1	1	4600	LPIG9	LPIG10	1500.0	50	230	300	catFR2	0	R1026D
1660.125	1.6	2702563	WORD	n/a	wordpools/wordpool_categorized_EN.txt	LADYBUG	Insects	11	1	15	[0, 0, 0]	n/a	0	1	0	n/a	n/a	0.0	0	0	0	catFR2	0	R1026D
1662.726	1.6	2706725	WORD	n/a	wordpools/wordpool_categorized_EN.txt	BEETLE	Insects	12	0	15	[0, 0, 0]	n/a	0	1	0	n/a	n/a	0.0	0	0	0	catFR2	0	R1026D
1664.342	0.001	2709310	DISTRACT_START	n/a	n/a	n/a	n/a	-999	0	15	[0, 0, 0]	n/a	0	1	0	n/a	n/a	0.0	0	0	0	catFR2	0	R1026D
1664.343	0.016	2709312	START	n/a	n/a	n/a	n/a	-999	0	15	[-999, -999, -999]	n/a	0	1	0	n/a	n/a	0.0	0	0	0	catFR2	0	R1026D
1664.359	4.167	2709337	PROB	4.132	n/a	n/a	n/a	-999	0	15	[7, 2, 5]	14	0	1	0	n/a	n/a	0.0	0	0	0	catFR2	0	R1026D
1668.526	3.617	2716004	PROB	3.581	n/a	n/a	n/a	-999	0	15	[3, 6, 4]	13	0	1	0	n/a	n/a	0.0	0	0	0	catFR2	0	R1026D
1672.143	4.335	2721791	PROB	4.3	n/a	n/a	n/a	-999	0	15	[5, 7, 9]	21	0	1	0	n/a	n/a	0.0	0	0	0	catFR2	0	R1026D
1676.478	3.684	2728727	PROB	3.652	n/a	n/a	n/a	-999	0	15	[9, 7, 1]	17	0	1	0	n/a	n/a	0.0	0	0	0	catFR2	0	R1026D
1680.162	3.668	2734621	PROB	3.642	n/a	n/a	n/a	-999	0	15	[9, 4, 2]	15	0	1	0	n/a	n/a	0.0	0	0	0	catFR2	0	R1026D
1683.83	4.142	2740489	PROB	4.142	n/a	n/a	n/a	-999	0	15	[5, 3, 8]	16	0	1	0	n/a	n/a	0.0	0	0	0	catFR2	0	R1026D
1687.972	0.009	2747116	STOP	n/a	n/a	n/a	n/a	-999	0	15	[-999, -999, -999]	n/a	0	1	0	n/a	n/a	0.0	0	0	0	catFR2	0	R1026D
1687.981	1.1	2747131	DISTRACT_END	n/a	n/a	n/a	n/a	-999	0	15	[0, 0, 0]	n/a	0	1	0	n/a	n/a	0.0	0	0	0	catFR2	0	R1026D
1689.081	2.657	2748891	REC_START	n/a	n/a	n/a	n/a	-999	0	15	[0, 0, 0]	n/a	0	1	0	n/a	n/a	0.0	0	0	0	catFR2	0	R1026D
1691.738	0.9	2753142	REC_WORD	2.657	n/a	LAMB	FarmAnimals	1	1	15	[0, 0, 0]	n/a	0	1	0	n/a	n/a	0.0	0	0	0	catFR2	0	R1026D
1692.638	1.472	2754581	REC_WORD	3.557	n/a	HEN	FarmAnimals	2	1	15	[0, 0, 0]	n/a	0	1	0	n/a	n/a	0.0	0	0	0	catFR2	0	R1026D
1694.11	1.269	2756937	REC_WORD	5.029	n/a	RUM	Beverages	3	1	15	[0, 0, 0]	n/a	0	1	0	n/a	n/a	0.0	0	0	0	catFR2	0	R1026D
1695.379	3.307	2758967	REC_WORD	6.298	n/a	LEMONADE	Beverages	4	1	15	[0, 0, 0]	n/a	0	1	0	n/a	n/a	0.0	0	0	0	catFR2	0	R1026D
1698.686	1.28	2764258	REC_WORD	9.605	n/a	ANT	n/a	-999	0	15	[0, 0, 0]	n/a	0	1	0	n/a	n/a	0.0	0	0	0	catFR2	0	R1026D
1699.966	4.023	2766306	REC_WORD	10.885	n/a	ROACH	Insects	6	1	15	[0, 0, 0]	n/a	0	1	0	n/a	n/a	0.0	0	0	0	catFR2	0	R1026D
1703.989	4.023	2772742	REC_WORD	14.908	n/a	HORSE	FarmAnimals	9	1	15	[0, 0, 0]	n/a	0	1	0	n/a	n/a	0.0	0	0	0	catFR2	0	R1026D
1708.012	6.75	2779179	REC_WORD	18.931	n/a	CHICKEN	n/a	-999	0	15	[0, 0, 0]	n/a	0	1	0	n/a	n/a	0.0	0	0	0	catFR2	0	R1026D
1714.762	4.329	2789978	REC_WORD	25.681	n/a	LADYBUG	Insects	11	1	15	[0, 0, 0]	n/a	0	1	0	n/a	n/a	0.0	0	0	0	catFR2	0	R1026D
1719.091	5.079	2796904	REC_END	n/a	n/a	n/a	n/a	-999	0	15	[0, 0, 0]	n/a	0	1	0	n/a	n/a	0.0	0	0	0	catFR2	0	R1026D
1724.17	0.0	2805030	TRIAL	n/a	n/a	n/a	n/a	-999	0	16	[0, 0, 0]	n/a	0	1	0	n/a	n/a	0.0	0	0	0	catFR2	0	R1026D
1724.17	10.0	2805030	COUNTDOWN_START	n/a	n/a	n/a	n/a	-999	0	16	[0, 0, 0]	n/a	0	1	0	n/a	n/a	0.0	0	0	0	catFR2	0	R1026D
1734.598	0.007	2821714	COUNTDOWN_END	n/a	n/a	n/a	n/a	-999	0	16	[0, 0, 0]	n/a	0	1	0	n/a	n/a	0.0	0	0	0	catFR2	0	R1026D
1734.605	1.6	2821725	ORIENT	n/a	n/a	n/a	n/a	-999	0	16	[0, 0, 0]	n/a	0	1	0	n/a	n/a	0.0	0	0	0	catFR2	0	R1026D
1738.008	4.6	2827170	STIM_ON	n/a	n/a	n/a	n/a	-999	0	16	[0, 0, 0]	n/a	1	1	4600	LPIG9	LPIG10	1500.0	50	230	300	catFR2	0	R1026D
1738.222	1.6	2827512	WORD	n/a	wordpools/wordpool_categorized_EN.txt	REFRIGERATOR	Appliances	1	0	16	[0, 0, 0]	n/a	1	1	4600	LPIG9	LPIG10	1500.0	50	230	300	catFR2	0	R1026D
1740.774	1.6	2831595	WORD	n/a	wordpools/wordpool_categorized_EN.txt	WASHER	Appliances	2	0	16	[0, 0, 0]	n/a	1	1	4600	LPIG9	LPIG10	1500.0	50	230	300	catFR2	0	R1026D
1743.24	1.6	2835541	WORD	n/a	wordpools/wordpool_categorized_EN.txt	SPARROW	Birds	3	1	16	[0, 0, 0]	n/a	0	1	0	n/a	n/a	0.0	0	0	0	catFR2	0	R1026D
1745.858	1.6	2839729	WORD	n/a	wordpools/wordpool_categorized_EN.txt	PIGEON	Birds	4	0	16	[0, 0, 0]	n/a	0	1	0	n/a	n/a	0.0	0	0	0	catFR2	0	R1026D
1748.115	4.6	2843340	STIM_ON	n/a	n/a	n/a	n/a	-999	0	16	[0, 0, 0]	n/a	1	1	4600	LPIG9	LPIG10	1500.0	50	230	300	catFR2	0	R1026D
1748.324	1.6	2843675	WORD	n/a	wordpools/wordpool_categorized_EN.txt	ISLAND	Landscapes	5	0	16	[0, 0, 0]	n/a	1	1	4600	LPIG9	LPIG10	1500.0	50	230	300	catFR2	0	R1026D
1750.776	1.6	2847598	WORD	n/a	wordpools/wordpool_categorized_EN.txt	STREAM	Landscapes	6	0	16	[0, 0, 0]	n/a	1	1	4600	LPIG9	LPIG10	1500.0	50	230	300	catFR2	0	R1026D
1753.158	1.6	2851409	WORD	n/a	wordpools/wordpool_categorized_EN.txt	STOVE	Appliances	7	0	16	[0, 0, 0]	n/a	0	1	0	n/a	n/a	0.0	0	0	0	catFR2	0	R1026D
1755.609	1.6	2855330	WORD	n/a	wordpools/wordpool_categorized_EN.txt	IRON	Appliances	8	0	16	[0, 0, 0]	n/a	0	1	0	n/a	n/a	0.0	0	0	0	catFR2	0	R1026D
1757.92	4.6	2859027	STIM_ON	n/a	n/a	n/a	n/a	-999	0	16	[0, 0, 0]	n/a	1	1	4600	LPIG9	LPIG10	1500.0	50	230	300	catFR2	0	R1026D
1758.126	1.6	2859357	WORD	n/a	wordpools/wordpool_categorized_EN.txt	VALLEY	Landscapes	9	0	16	[0, 0, 0]	n/a	1	1	4600	LPIG9	LPIG10	1500.0	50	230	300	catFR2	0	R1026D
1760.744	1.6	2863546	WORD	n/a	wordpools/wordpool_categorized_EN.txt	HILLS	Landscapes	10	0	16	[0, 0, 0]	n/a	1	1	4600	LPIG9	LPIG10	1500.0	50	230	300	catFR2	0	R1026D
1763.127	1.6	2867358	WORD	n/a	wordpools/wordpool_categorized_EN.txt	CROW	Birds	11	0	16	[0, 0, 0]	n/a	0	1	0	n/a	n/a	0.0	0	0	0	catFR2	0	R1026D
1765.627	1.6	2871358	WORD	n/a	wordpools/wordpool_categorized_EN.txt	HAWK	Birds	12	1	16	[0, 0, 0]	n/a	0	1	0	n/a	n/a	0.0	0	0	0	catFR2	0	R1026D
1767.244	0.001	2873945	DISTRACT_START	n/a	n/a	n/a	n/a	-999	0	16	[0, 0, 0]	n/a	0	1	0	n/a	n/a	0.0	0	0	0	catFR2	0	R1026D
1767.245	0.016	2873947	START	n/a	n/a	n/a	n/a	-999	0	16	[-999, -999, -999]	n/a	0	1	0	n/a	n/a	0.0	0	0	0	catFR2	0	R1026D
1767.261	11.885	2873972	PROB	11.854	n/a	n/a	n/a	-999	0	16	[3, 5, 4]	12	0	1	0	n/a	n/a	0.0	0	0	0	catFR2	0	R1026D
1779.146	4.951	2892987	PROB	4.921	n/a	n/a	n/a	-999	0	16	[6, 2, 2]	10	0	1	0	n/a	n/a	0.0	0	0	0	catFR2	0	R1026D
1784.097	5.49	2900909	PROB	5.49	n/a	n/a	n/a	-999	0	16	[3, 4, 3]	10	0	1	0	n/a	n/a	0.0	0	0	0	catFR2	0	R1026D
1789.587	0.011	2909692	STOP	n/a	n/a	n/a	n/a	-999	0	16	[-999, -999, -999]	n/a	0	1	0	n/a	n/a	0.0	0	0	0	catFR2	0	R1026D
1789.598	1.119	2909710	DISTRACT_END	n/a	n/a	n/a	n/a	-999	0	16	[0, 0, 0]	n/a	0	1	0	n/a	n/a	0.0	0	0	0	catFR2	0	R1026D
1790.717	5.092	2911500	REC_START	n/a	n/a	n/a	n/a	-999	0	16	[0, 0, 0]	n/a	0	1	0	n/a	n/a	0.0	0	0	0	catFR2	0	R1026D
1795.809	6.17	2919647	REC_WORD	5.092	n/a	SPARROW	Birds	3	1	16	[0, 0, 0]	n/a	0	1	0	n/a	n/a	0.0	0	0	0	catFR2	0	R1026D
1801.979	18.749	2929518	REC_WORD	11.262	n/a	HAWK	Birds	12	1	16	[0, 0, 0]	n/a	0	1	0	n/a	n/a	0.0	0	0	0	catFR2	0	R1026D
1820.728	4.494	2959515	REC_END	n/a	n/a	n/a	n/a	-999	0	16	[0, 0, 0]	n/a	0	1	0	n/a	n/a	0.0	0	0	0	catFR2	0	R1026D
1825.222	10.0	2966705	COUNTDOWN_START	n/a	n/a	n/a	n/a	-999	0	17	[0, 0, 0]	n/a	0	1	0	n/a	n/a	0.0	0	0	0	catFR2	0	R1026D
1825.222	10.428	2966705	TRIAL	n/a	n/a	n/a	n/a	-999	0	17	[0, 0, 0]	n/a	0	1	0	n/a	n/a	0.0	0	0	0	catFR2	0	R1026D
1835.65	0.008	2983389	COUNTDOWN_END	n/a	n/a	n/a	n/a	-999	0	17	[0, 0, 0]	n/a	0	1	0	n/a	n/a	0.0	0	0	0	catFR2	0	R1026D
1835.658	1.6	2983402	ORIENT	n/a	n/a	n/a	n/a	-999	0	17	[0, 0, 0]	n/a	0	1	0	n/a	n/a	0.0	0	0	0	catFR2	0	R1026D
1838.924	4.6	2988627	STIM_ON	n/a	n/a	n/a	n/a	-999	0	17	[0, 0, 0]	n/a	1	1	4600	LPIG9	LPIG10	1500.0	50	230	300	catFR2	0	R1026D
1839.141	1.6	2988975	WORD	n/a	wordpools/wordpool_categorized_EN.txt	APPLE	Fruit	1	0	17	[0, 0, 0]	n/a	1	1	4600	LPIG9	LPIG10	1500.0	50	230	300	catFR2	0	R1026D
1841.692	1.6	2993056	WORD	n/a	wordpools/wordpool_categorized_EN.txt	LEMON	Fruit	2	0	17	[0, 0, 0]	n/a	1	1	4600	LPIG9	LPIG10	1500.0	50	230	300	catFR2	0	R1026D
1844.158	1.6	2997001	WORD	n/a	wordpools/wordpool_categorized_EN.txt	HEADPHONES	Electronics	3	0	17	[0, 0, 0]	n/a	0	1	0	n/a	n/a	0.0	0	0	0	catFR2	0	R1026D
1846.592	1.6	3000896	WORD	n/a	wordpools/wordpool_categorized_EN.txt	PRINTER	Electronics	4	1	17	[0, 0, 0]	n/a	0	1	0	n/a	n/a	0.0	0	0	0	catFR2	0	R1026D
1848.922	4.6	3004623	STIM_ON	n/a	n/a	n/a	n/a	-999	0	17	[0, 0, 0]	n/a	1	1	4600	LPIG9	LPIG10	1500.0	50	230	300	catFR2	0	R1026D
1849.126	1.6	3004950	WORD	n/a	wordpools/wordpool_categorized_EN.txt	MOUSSE	Desserts	5	1	17	[0, 0, 0]	n/a	1	1	4600	LPIG9	LPIG10	1500.0	50	230	300	catFR2	0	R1026D
1851.593	1.6	3008897	WORD	n/a	wordpools/wordpool_categorized_EN.txt	CAKE	Desserts	6	1	17	[0, 0, 0]	n/a	1	1	4600	LPIG9	LPIG10	1500.0	50	230	300	catFR2	0	R1026D
1854.194	1.6	3013058	WORD	n/a	wordpools/wordpool_categorized_EN.txt	PEAR	Fruit	7	0	17	[0, 0, 0]	n/a	0	1	0	n/a	n/a	0.0	0	0	0	catFR2	0	R1026D
1856.594	1.6	3016898	WORD	n/a	wordpools/wordpool_categorized_EN.txt	STRAWBERRY	Fruit	8	1	17	[0, 0, 0]	n/a	0	1	0	n/a	n/a	0.0	0	0	0	catFR2	0	R1026D
1858.927	4.6	3020631	STIM_ON	n/a	n/a	n/a	n/a	-999	0	17	[0, 0, 0]	n/a	1	1	4600	LPIG9	LPIG10	1500.0	50	230	300	catFR2	0	R1026D
1859.144	1.6	3020978	WORD	n/a	wordpools/wordpool_categorized_EN.txt	BROWNIES	Desserts	9	1	17	[0, 0, 0]	n/a	1	1	4600	LPIG9	LPIG10	1500.0	50	230	300	catFR2	0	R1026D
1861.713	1.6	3025088	WORD	n/a	wordpools/wordpool_categorized_EN.txt	CUPCAKE	Desserts	10	0	17	[0, 0, 0]	n/a	1	1	4600	LPIG9	LPIG10	1500.0	50	230	300	catFR2	0	R1026D
1864.129	1.6	3028953	WORD	n/a	wordpools/wordpool_categorized_EN.txt	TELEVISION	Electronics	11	0	17	[0, 0, 0]	n/a	0	1	0	n/a	n/a	0.0	0	0	0	catFR2	0	R1026D
1866.68	1.6	3033035	WORD	n/a	wordpools/wordpool_categorized_EN.txt	SCANNER	Electronics	12	1	17	[0, 0, 0]	n/a	0	1	0	n/a	n/a	0.0	0	0	0	catFR2	0	R1026D
1868.296	0.001	3035620	DISTRACT_START	n/a	n/a	n/a	n/a	-999	0	17	[0, 0, 0]	n/a	0	1	0	n/a	n/a	0.0	0	0	0	catFR2	0	R1026D
1868.297	0.016	3035622	START	n/a	n/a	n/a	n/a	-999	0	17	[-999, -999, -999]	n/a	0	1	0	n/a	n/a	0.0	0	0	0	catFR2	0	R1026D
1868.313	14.553	3035647	PROB	14.523	n/a	n/a	n/a	-999	0	17	[2, 8, 4]	14	0	1	0	n/a	n/a	0.0	0	0	0	catFR2	0	R1026D
1882.866	3.934	3058931	PROB	3.906	n/a	n/a	n/a	-999	0	17	[3, 2, 3]	8	0	1	0	n/a	n/a	0.0	0	0	0	catFR2	0	R1026D
1886.8	3.004	3065225	PROB	3.004	n/a	n/a	n/a	-999	0	17	[3, 5, 5]	13	0	1	0	n/a	n/a	0.0	0	0	0	catFR2	0	R1026D
1889.804	0.014	3070031	STOP	n/a	n/a	n/a	n/a	-999	0	17	[-999, -999, -999]	n/a	0	1	0	n/a	n/a	0.0	0	0	0	catFR2	0	R1026D
1889.818	1.2	3070054	DISTRACT_END	n/a	n/a	n/a	n/a	-999	0	17	[0, 0, 0]	n/a	0	1	0	n/a	n/a	0.0	0	0	0	catFR2	0	R1026D
1891.018	2.797	3071974	REC_START	n/a	n/a	n/a	n/a	-999	0	17	[0, 0, 0]	n/a	0	1	0	n/a	n/a	0.0	0	0	0	catFR2	0	R1026D
1893.815	1.43	3076449	REC_WORD	2.797	n/a	SCANNER	Electronics	12	1	17	[0, 0, 0]	n/a	0	1	0	n/a	n/a	0.0	0	0	0	catFR2	0	R1026D
1895.245	1.519	3078737	REC_WORD	4.227	n/a	PRINTER	Electronics	4	1	17	[0, 0, 0]	n/a	0	1	0	n/a	n/a	0.0	0	0	0	catFR2	0	R1026D
1896.764	1.263	3081167	REC_WORD	5.746	n/a	BROWNIES	Desserts	9	1	17	[0, 0, 0]	n/a	0	1	0	n/a	n/a	0.0	0	0	0	catFR2	0	R1026D
1898.027	8.652	3083187	REC_WORD	7.009	n/a	STRAWBERRY	Fruit	8	1	17	[0, 0, 0]	n/a	0	1	0	n/a	n/a	0.0	0	0	0	catFR2	0	R1026D
1906.679	0.927	3097030	REC_WORD	15.661	n/a	MOUSSE	Desserts	5	1	17	[0, 0, 0]	n/a	0	1	0	n/a	n/a	0.0	0	0	0	catFR2	0	R1026D
1907.606	13.423	3098513	REC_WORD	16.588	n/a	CAKE	Desserts	6	1	17	[0, 0, 0]	n/a	0	1	0	n/a	n/a	0.0	0	0	0	catFR2	0	R1026D
1921.029	9.946	3119989	REC_END	n/a	n/a	n/a	n/a	-999	0	17	[0, 0, 0]	n/a	0	1	0	n/a	n/a	0.0	0	0	0	catFR2	0	R1026D
1930.975	0.0	3135902	TRIAL	n/a	n/a	n/a	n/a	-999	0	18	[0, 0, 0]	n/a	0	1	0	n/a	n/a	0.0	0	0	0	catFR2	0	R1026D
1930.975	10.0	3135902	COUNTDOWN_START	n/a	n/a	n/a	n/a	-999	0	18	[0, 0, 0]	n/a	0	1	0	n/a	n/a	0.0	0	0	0	catFR2	0	R1026D
1941.403	0.006	3152586	COUNTDOWN_END	n/a	n/a	n/a	n/a	-999	0	18	[0, 0, 0]	n/a	0	1	0	n/a	n/a	0.0	0	0	0	catFR2	0	R1026D
1941.409	1.6	3152595	ORIENT	n/a	n/a	n/a	n/a	-999	0	18	[0, 0, 0]	n/a	0	1	0	n/a	n/a	0.0	0	0	0	catFR2	0	R1026D
1944.811	1.6	3158038	WORD	n/a	wordpools/wordpool_categorized_EN.txt	FRISBEE	Toys	1	0	18	[0, 0, 0]	n/a	0	1	0	n/a	n/a	0.0	0	0	0	catFR2	0	R1026D
1947.194	1.6	3161851	WORD	n/a	wordpools/wordpool_categorized_EN.txt	BALL	Toys	2	0	18	[0, 0, 0]	n/a	0	1	0	n/a	n/a	0.0	0	0	0	catFR2	0	R1026D
1949.438	4.6	3165441	STIM_ON	n/a	n/a	n/a	n/a	-999	0	18	[0, 0, 0]	n/a	1	1	4600	LPIG9	LPIG10	1500.0	50	230	300	catFR2	0	R1026D
1949.644	1.6	3165771	WORD	n/a	wordpools/wordpool_categorized_EN.txt	CABINET	Furniture	3	0	18	[0, 0, 0]	n/a	1	1	4600	LPIG9	LPIG10	1500.0	50	230	300	catFR2	0	R1026D
1952.178	1.6	3169825	WORD	n/a	wordpools/wordpool_categorized_EN.txt	RECLINER	Furniture	4	0	18	[0, 0, 0]	n/a	1	1	4600	LPIG9	LPIG10	1500.0	50	230	300	catFR2	0	R1026D
1954.68	1.6	3173828	WORD	n/a	wordpools/wordpool_categorized_EN.txt	SCOOTER	Vehicles	5	0	18	[0, 0, 0]	n/a	0	1	0	n/a	n/a	0.0	0	0	0	catFR2	0	R1026D
1957.146	1.6	3177773	WORD	n/a	wordpools/wordpool_categorized_EN.txt	TRUCK	Vehicles	6	0	18	[0, 0, 0]	n/a	0	1	0	n/a	n/a	0.0	0	0	0	catFR2	0	R1026D
1959.482	4.6	3181511	STIM_ON	n/a	n/a	n/a	n/a	-999	0	18	[0, 0, 0]	n/a	1	1	4600	LPIG9	LPIG10	1500.0	50	230	300	catFR2	0	R1026D
1959.697	1.6	3181855	WORD	n/a	wordpools/wordpool_categorized_EN.txt	BLOCKS	Toys	7	0	18	[0, 0, 0]	n/a	1	1	4600	LPIG9	LPIG10	1500.0	50	230	300	catFR2	0	R1026D
1962.23	1.6	3185907	WORD	n/a	wordpools/wordpool_categorized_EN.txt	FOOTBALL	Toys	8	0	18	[0, 0, 0]	n/a	1	1	4600	LPIG9	LPIG10	1500.0	50	230	300	catFR2	0	R1026D
1964.63	1.6	3189747	WORD	n/a	wordpools/wordpool_categorized_EN.txt	PLANE	Vehicles	9	0	18	[0, 0, 0]	n/a	0	1	0	n/a	n/a	0.0	0	0	0	catFR2	0	R1026D
1967.048	1.6	3193616	WORD	n/a	wordpools/wordpool_categorized_EN.txt	MOPED	Vehicles	10	0	18	[0, 0, 0]	n/a	0	1	0	n/a	n/a	0.0	0	0	0	catFR2	0	R1026D
1969.235	4.6	3197115	STIM_ON	n/a	n/a	n/a	n/a	-999	0	18	[0, 0, 0]	n/a	1	1	4600	LPIG9	LPIG10	1500.0	50	230	300	catFR2	0	R1026D
1969.448	1.6	3197455	WORD	n/a	wordpools/wordpool_categorized_EN.txt	CHAIR	Furniture	11	1	18	[0, 0, 0]	n/a	1	1	4600	LPIG9	LPIG10	1500.0	50	230	300	catFR2	0	R1026D
1971.899	1.6	3201377	WORD	n/a	wordpools/wordpool_categorized_EN.txt	TABLE	Furniture	12	1	18	[0, 0, 0]	n/a	1	1	4600	LPIG9	LPIG10	1500.0	50	230	300	catFR2	0	R1026D
1973.515	0.001	3203962	DISTRACT_START	n/a	n/a	n/a	n/a	-999	0	18	[0, 0, 0]	n/a	0	1	0	n/a	n/a	0.0	0	0	0	catFR2	0	R1026D
1973.516	0.016	3203964	START	n/a	n/a	n/a	n/a	-999	0	18	[-999, -999, -999]	n/a	0	1	0	n/a	n/a	0.0	0	0	0	catFR2	0	R1026D
1973.532	4.335	3203989	PROB	4.312	n/a	n/a	n/a	-999	0	18	[4, 3, 9]	16	0	1	0	n/a	n/a	0.0	0	0	0	catFR2	0	R1026D
1977.867	4.283	3210925	PROB	4.248	n/a	n/a	n/a	-999	0	18	[1, 5, 8]	14	0	1	0	n/a	n/a	0.0	0	0	0	catFR2	0	R1026D
1982.15	3.602	3217778	PROB	3.574	n/a	n/a	n/a	-999	0	18	[3, 2, 3]	8	0	1	0	n/a	n/a	0.0	0	0	0	catFR2	0	R1026D
1985.752	4.616	3223540	PROB	4.595	n/a	n/a	n/a	-999	0	18	[2, 4, 3]	9	0	1	0	n/a	n/a	0.0	0	0	0	catFR2	0	R1026D
1990.368	2.619	3230926	PROB	2.588	n/a	n/a	n/a	-999	0	18	[1, 1, 2]	4	0	1	0	n/a	n/a	0.0	0	0	0	catFR2	0	R1026D
1992.987	4.16	3235116	PROB	4.16	n/a	n/a	n/a	-999	0	18	[9, 7, 1]	18	0	1	0	n/a	n/a	0.0	0	0	0	catFR2	0	R1026D
1997.147	0.006	3241772	STOP	n/a	n/a	n/a	n/a	-999	0	18	[-999, -999, -999]	n/a	0	1	0	n/a	n/a	0.0	0	0	0	catFR2	0	R1026D
1997.153	1.068	3241781	DISTRACT_END	n/a	n/a	n/a	n/a	-999	0	18	[0, 0, 0]	n/a	0	1	0	n/a	n/a	0.0	0	0	0	catFR2	0	R1026D
1998.221	9.986	3243490	REC_START	n/a	n/a	n/a	n/a	-999	0	18	[0, 0, 0]	n/a	0	1	0	n/a	n/a	0.0	0	0	0	catFR2	0	R1026D
2008.207	1.208	3259467	REC_WORD	9.986	n/a	DRESSER	n/a	-999	0	18	[0, 0, 0]	n/a	0	1	0	n/a	n/a	0.0	0	0	0	catFR2	0	R1026D
2009.415	1.236	3261399	REC_WORD	11.194	n/a	TABLE	Furniture	12	1	18	[0, 0, 0]	n/a	0	1	0	n/a	n/a	0.0	0	0	0	catFR2	0	R1026D
2010.651	17.58	3263377	REC_WORD	12.43	n/a	CHAIR	Furniture	11	1	18	[0, 0, 0]	n/a	0	1	0	n/a	n/a	0.0	0	0	0	catFR2	0	R1026D
2028.231	6.779	3291503	REC_END	n/a	n/a	n/a	n/a	-999	0	18	[0, 0, 0]	n/a	0	1	0	n/a	n/a	0.0	0	0	0	catFR2	0	R1026D
2035.01	0.0	3302349	TRIAL	n/a	n/a	n/a	n/a	-999	0	19	[0, 0, 0]	n/a	0	1	0	n/a	n/a	0.0	0	0	0	catFR2	0	R1026D
2035.01	10.0	3302349	COUNTDOWN_START	n/a	n/a	n/a	n/a	-999	0	19	[0, 0, 0]	n/a	0	1	0	n/a	n/a	0.0	0	0	0	catFR2	0	R1026D
2045.438	0.007	3319033	COUNTDOWN_END	n/a	n/a	n/a	n/a	-999	0	19	[0, 0, 0]	n/a	0	1	0	n/a	n/a	0.0	0	0	0	catFR2	0	R1026D
2045.445	1.6	3319045	ORIENT	n/a	n/a	n/a	n/a	-999	0	19	[0, 0, 0]	n/a	0	1	0	n/a	n/a	0.0	0	0	0	catFR2	0	R1026D
2049.096	1.6	3324886	WORD	n/a	wordpools/wordpool_categorized_EN.txt	SPATULA	KitchenTools	1	1	19	[0, 0, 0]	n/a	0	1	0	n/a	n/a	0.0	0	0	0	catFR2	0	R1026D
2051.563	1.6	3328833	WORD	n/a	wordpools/wordpool_categorized_EN.txt	PEELER	KitchenTools	2	1	19	[0, 0, 0]	n/a	0	1	0	n/a	n/a	0.0	0	0	0	catFR2	0	R1026D
2053.754	4.6	3332338	STIM_ON	n/a	n/a	n/a	n/a	-999	0	19	[0, 0, 0]	n/a	1	1	4600	LPIG9	LPIG10	1500.0	50	230	300	catFR2	0	R1026D
2053.965	1.6	3332676	WORD	n/a	wordpools/wordpool_categorized_EN.txt	VIOLIN	Instruments	3	1	19	[0, 0, 0]	n/a	1	1	4600	LPIG9	LPIG10	1500.0	50	230	300	catFR2	0	R1026D
2056.381	1.6	3336541	WORD	n/a	wordpools/wordpool_categorized_EN.txt	DRUM	Instruments	4	1	19	[0, 0, 0]	n/a	1	1	4600	LPIG9	LPIG10	1500.0	50	230	300	catFR2	0	R1026D
2058.815	1.6	3340435	WORD	n/a	wordpools/wordpool_categorized_EN.txt	FOOT	BodyParts	5	0	19	[0, 0, 0]	n/a	0	1	0	n/a	n/a	0.0	0	0	0	catFR2	0	R1026D
2061.231	1.6	3344301	WORD	n/a	wordpools/wordpool_categorized_EN.txt	HEAD	BodyParts	6	0	19	[0, 0, 0]	n/a	0	1	0	n/a	n/a	0.0	0	0	0	catFR2	0	R1026D
2063.567	4.6	3348038	STIM_ON	n/a	n/a	n/a	n/a	-999	0	19	[0, 0, 0]	n/a	1	1	4600	LPIG9	LPIG10	1500.0	50	230	300	catFR2	0	R1026D
2063.783	1.6	3348384	WORD	n/a	wordpools/wordpool_categorized_EN.txt	CELLO	Instruments	7	1	19	[0, 0, 0]	n/a	1	1	4600	LPIG9	LPIG10	1500.0	50	230	300	catFR2	0	R1026D
2066.366	1.6	3352516	WORD	n/a	wordpools/wordpool_categorized_EN.txt	TROMBONE	Instruments	8	1	19	[0, 0, 0]	n/a	1	1	4600	LPIG9	LPIG10	1500.0	50	230	300	catFR2	0	R1026D
2068.901	1.6	3356572	WORD	n/a	wordpools/wordpool_categorized_EN.txt	TONGS	KitchenTools	9	1	19	[0, 0, 0]	n/a	0	1	0	n/a	n/a	0.0	0	0	0	catFR2	0	R1026D
2071.433	1.6	3360623	WORD	n/a	wordpools/wordpool_categorized_EN.txt	GRATER	KitchenTools	10	1	19	[0, 0, 0]	n/a	0	1	0	n/a	n/a	0.0	0	0	0	catFR2	0	R1026D
2073.729	4.6	3364297	STIM_ON	n/a	n/a	n/a	n/a	-999	0	19	[0, 0, 0]	n/a	1	1	4600	LPIG9	LPIG10	1500.0	50	230	300	catFR2	0	R1026D
2073.935	1.6	3364626	WORD	n/a	wordpools/wordpool_categorized_EN.txt	EYE	BodyParts	11	0	19	[0, 0, 0]	n/a	1	1	4600	LPIG9	LPIG10	1500.0	50	230	300	catFR2	0	R1026D
2076.401	1.6	3368572	WORD	n/a	wordpools/wordpool_categorized_EN.txt	LEG	BodyParts	12	1	19	[0, 0, 0]	n/a	1	1	4600	LPIG9	LPIG10	1500.0	50	230	300	catFR2	0	R1026D
2078.018	0.001	3371159	DISTRACT_START	n/a	n/a	n/a	n/a	-999	0	19	[0, 0, 0]	n/a	0	1	0	n/a	n/a	0.0	0	0	0	catFR2	0	R1026D
2078.019	0.016	3371160	START	n/a	n/a	n/a	n/a	-999	0	19	[-999, -999, -999]	n/a	0	1	0	n/a	n/a	0.0	0	0	0	catFR2	0	R1026D
2078.035	8.284	3371186	PROB	8.248	n/a	n/a	n/a	-999	0	19	[6, 6, 5]	17	0	1	0	n/a	n/a	0.0	0	0	0	catFR2	0	R1026D
2086.319	4.101	3384440	PROB	4.068	n/a	n/a	n/a	-999	0	19	[6, 7, 1]	14	0	1	0	n/a	n/a	0.0	0	0	0	catFR2	0	R1026D
2090.42	6.651	3391001	PROB	6.623	n/a	n/a	n/a	-999	0	19	[4, 5, 5]	15	0	1	0	n/a	n/a	0.0	0	0	0	catFR2	0	R1026D
2097.071	8.348	3401642	PROB	8.348	n/a	n/a	n/a	-999	0	19	[3, 5, 4]	12	0	1	0	n/a	n/a	0.0	0	0	0	catFR2	0	R1026D
2105.419	0.004	3414998	STOP	n/a	n/a	n/a	n/a	-999	0	19	[-999, -999, -999]	n/a	0	1	0	n/a	n/a	0.0	0	0	0	catFR2	0	R1026D
2105.423	1.101	3415005	DISTRACT_END	n/a	n/a	n/a	n/a	-999	0	19	[0, 0, 0]	n/a	0	1	0	n/a	n/a	0.0	0	0	0	catFR2	0	R1026D
2106.524	3.66	3416766	REC_START	n/a	n/a	n/a	n/a	-999	0	19	[0, 0, 0]	n/a	0	1	0	n/a	n/a	0.0	0	0	0	catFR2	0	R1026D
2110.184	1.355	3422622	REC_WORD	3.66	n/a	GRATER	KitchenTools	10	1	19	[0, 0, 0]	n/a	0	1	0	n/a	n/a	0.0	0	0	0	catFR2	0	R1026D
2111.539	3.93	3424790	REC_WORD	5.015	n/a	PEELER	KitchenTools	2	1	19	[0, 0, 0]	n/a	0	1	0	n/a	n/a	0.0	0	0	0	catFR2	0	R1026D
2115.469	1.276	3431077	REC_WORD	8.945	n/a	VIOLIN	Instruments	3	1	19	[0, 0, 0]	n/a	0	1	0	n/a	n/a	0.0	0	0	0	catFR2	0	R1026D
2116.745	6.582	3433119	REC_WORD	10.221	n/a	DRUM	Instruments	4	1	19	[0, 0, 0]	n/a	0	1	0	n/a	n/a	0.0	0	0	0	catFR2	0	R1026D
2123.327	0.991	3443650	REC_WORD	16.803	n/a	CELLO	Instruments	7	1	19	[0, 0, 0]	n/a	0	1	0	n/a	n/a	0.0	0	0	0	catFR2	0	R1026D
2124.318	2.984	3445235	REC_WORD	17.794	n/a	TROMBONE	Instruments	8	1	19	[0, 0, 0]	n/a	0	1	0	n/a	n/a	0.0	0	0	0	catFR2	0	R1026D
2127.302	0.937	3450009	REC_WORD	20.778	n/a	TONGS	KitchenTools	9	1	19	[0, 0, 0]	n/a	0	1	0	n/a	n/a	0.0	0	0	0	catFR2	0	R1026D
2128.239	0.548	3451508	REC_WORD_VV	21.715	n/a	<>	n/a	-999	0	19	[0, 0, 0]	n/a	0	1	0	n/a	n/a	0.0	0	0	0	catFR2	0	R1026D
2128.787	5.34	3452385	REC_WORD	22.263	n/a	SPATULA	KitchenTools	1	1	19	[0, 0, 0]	n/a	0	1	0	n/a	n/a	0.0	0	0	0	catFR2	0	R1026D
2134.127	2.408	3460929	REC_WORD	27.603	n/a	LEG	BodyParts	12	1	19	[0, 0, 0]	n/a	0	1	0	n/a	n/a	0.0	0	0	0	catFR2	0	R1026D
2136.535	4.711	3464781	REC_END	n/a	n/a	n/a	n/a	-999	0	19	[0, 0, 0]	n/a	0	1	0	n/a	n/a	0.0	0	0	0	catFR2	0	R1026D
2141.246	0.0	3472318	TRIAL	n/a	n/a	n/a	n/a	-999	0	20	[0, 0, 0]	n/a	0	1	0	n/a	n/a	0.0	0	0	0	catFR2	0	R1026D
2141.246	10.0	3472318	COUNTDOWN_START	n/a	n/a	n/a	n/a	-999	0	20	[0, 0, 0]	n/a	0	1	0	n/a	n/a	0.0	0	0	0	catFR2	0	R1026D
2151.674	0.008	3489002	COUNTDOWN_END	n/a	n/a	n/a	n/a	-999	0	20	[0, 0, 0]	n/a	0	1	0	n/a	n/a	0.0	0	0	0	catFR2	0	R1026D
2151.682	1.6	3489015	ORIENT	n/a	n/a	n/a	n/a	-999	0	20	[0, 0, 0]	n/a	0	1	0	n/a	n/a	0.0	0	0	0	catFR2	0	R1026D
2155.155	4.6	3494572	STIM_ON	n/a	n/a	n/a	n/a	-999	0	20	[0, 0, 0]	n/a	1	1	4600	LPIG9	LPIG10	1500.0	50	230	300	catFR2	0	R1026D
2155.365	1.6	3494908	WORD	n/a	wordpools/wordpool_categorized_EN.txt	TRAIN	Vehicles	1	0	20	[0, 0, 0]	n/a	1	1	4600	LPIG9	LPIG10	1500.0	50	230	300	catFR2	0	R1026D
2157.967	1.6	3499071	WORD	n/a	wordpools/wordpool_categorized_EN.txt	MOTORCYCLE	Vehicles	2	0	20	[0, 0, 0]	n/a	1	1	4600	LPIG9	LPIG10	1500.0	50	230	300	catFR2	0	R1026D
2160.516	1.6	3503149	WORD	n/a	wordpools/wordpool_categorized_EN.txt	WINDOW	Building	3	1	20	[0, 0, 0]	n/a	0	1	0	n/a	n/a	0.0	0	0	0	catFR2	0	R1026D
2163.0	1.6	3507123	WORD	n/a	wordpools/wordpool_categorized_EN.txt	BATHROOM	Building	4	0	20	[0, 0, 0]	n/a	0	1	0	n/a	n/a	0.0	0	0	0	catFR2	0	R1026D
2165.186	4.6	3510621	STIM_ON	n/a	n/a	n/a	n/a	-999	0	20	[0, 0, 0]	n/a	1	1	4600	LPIG9	LPIG10	1500.0	50	230	300	catFR2	0	R1026D
2165.401	1.6	3510965	WORD	n/a	wordpools/wordpool_categorized_EN.txt	COW	FarmAnimals	5	1	20	[0, 0, 0]	n/a	1	1	4600	LPIG9	LPIG10	1500.0	50	230	300	catFR2	0	R1026D
2167.802	1.6	3514806	WORD	n/a	wordpools/wordpool_categorized_EN.txt	GOAT	FarmAnimals	6	1	20	[0, 0, 0]	n/a	1	1	4600	LPIG9	LPIG10	1500.0	50	230	300	catFR2	0	R1026D
2170.218	1.6	3518671	WORD	n/a	wordpools/wordpool_categorized_EN.txt	ROOM	Building	7	1	20	[0, 0, 0]	n/a	0	1	0	n/a	n/a	0.0	0	0	0	catFR2	0	R1026D
2172.703	1.6	3522647	WORD	n/a	wordpools/wordpool_categorized_EN.txt	DOOR	Building	8	1	20	[0, 0, 0]	n/a	0	1	0	n/a	n/a	0.0	0	0	0	catFR2	0	R1026D
2175.1	4.6	3526482	STIM_ON	n/a	n/a	n/a	n/a	-999	0	20	[0, 0, 0]	n/a	1	1	4600	LPIG9	LPIG10	1500.0	50	230	300	catFR2	0	R1026D
2175.302	1.6	3526805	WORD	n/a	wordpools/wordpool_categorized_EN.txt	BUS	Vehicles	9	0	20	[0, 0, 0]	n/a	1	1	4600	LPIG9	LPIG10	1500.0	50	230	300	catFR2	0	R1026D
2177.771	1.6	3530756	WORD	n/a	wordpools/wordpool_categorized_EN.txt	JEEP	Vehicles	10	0	20	[0, 0, 0]	n/a	1	1	4600	LPIG9	LPIG10	1500.0	50	230	300	catFR2	0	R1026D
2180.203	1.6	3534647	WORD	n/a	wordpools/wordpool_categorized_EN.txt	TURKEY	FarmAnimals	11	0	20	[0, 0, 0]	n/a	0	1	0	n/a	n/a	0.0	0	0	0	catFR2	0	R1026D
2182.637	1.6	3538541	WORD	n/a	wordpools/wordpool_categorized_EN.txt	CALF	FarmAnimals	12	0	20	[0, 0, 0]	n/a	0	1	0	n/a	n/a	0.0	0	0	0	catFR2	0	R1026D
2184.254	0.001	3541128	DISTRACT_START	n/a	n/a	n/a	n/a	-999	0	20	[0, 0, 0]	n/a	0	1	0	n/a	n/a	0.0	0	0	0	catFR2	0	R1026D
2184.255	0.016	3541129	START	n/a	n/a	n/a	n/a	-999	0	20	[-999, -999, -999]	n/a	0	1	0	n/a	n/a	0.0	0	0	0	catFR2	0	R1026D
2184.271	4.151	3541155	PROB	4.116	n/a	n/a	n/a	-999	0	20	[8, 6, 4]	12	0	1	0	n/a	n/a	0.0	0	0	0	catFR2	0	R1026D
2188.422	7.618	3547796	PROB	7.589	n/a	n/a	n/a	-999	0	20	[6, 7, 2]	15	0	1	0	n/a	n/a	0.0	0	0	0	catFR2	0	R1026D
2196.04	8.331	3559984	PROB	8.331	n/a	n/a	n/a	-999	0	20	[6, 6, 7]	19	0	1	0	n/a	n/a	0.0	0	0	0	catFR2	0	R1026D
2204.371	0.003	3573313	STOP	n/a	n/a	n/a	n/a	-999	0	20	[-999, -999, -999]	n/a	0	1	0	n/a	n/a	0.0	0	0	0	catFR2	0	R1026D
2204.374	1.068	3573318	DISTRACT_END	n/a	n/a	n/a	n/a	-999	0	20	[0, 0, 0]	n/a	0	1	0	n/a	n/a	0.0	0	0	0	catFR2	0	R1026D
2205.442	2.091	3575027	REC_START	n/a	n/a	n/a	n/a	-999	0	20	[0, 0, 0]	n/a	0	1	0	n/a	n/a	0.0	0	0	0	catFR2	0	R1026D
2207.533	1.383	3578372	REC_WORD	2.091	n/a	WINDOW	Building	3	1	20	[0, 0, 0]	n/a	0	1	0	n/a	n/a	0.0	0	0	0	catFR2	0	R1026D
2208.916	3.004	3580585	REC_WORD	3.474	n/a	DOOR	Building	8	1	20	[0, 0, 0]	n/a	0	1	0	n/a	n/a	0.0	0	0	0	catFR2	0	R1026D
2211.92	1.418	3585391	REC_WORD	6.478	n/a	COW	FarmAnimals	5	1	20	[0, 0, 0]	n/a	0	1	0	n/a	n/a	0.0	0	0	0	catFR2	0	R1026D
2213.338	3.305	3587660	REC_WORD	7.896	n/a	GOAT	FarmAnimals	6	1	20	[0, 0, 0]	n/a	0	1	0	n/a	n/a	0.0	0	0	0	catFR2	0	R1026D
2216.643	18.81	3592948	REC_WORD	11.201	n/a	ROOM	Building	7	1	20	[0, 0, 0]	n/a	0	1	0	n/a	n/a	0.0	0	0	0	catFR2	0	R1026D
2235.453	7.178	3623042	REC_END	n/a	n/a	n/a	n/a	-999	0	20	[0, 0, 0]	n/a	0	1	0	n/a	n/a	0.0	0	0	0	catFR2	0	R1026D
2242.631	10.0	3634526	COUNTDOWN_START	n/a	n/a	n/a	n/a	-999	0	21	[0, 0, 0]	n/a	0	1	0	n/a	n/a	0.0	0	0	0	catFR2	0	R1026D
2242.632	10.427	3634528	TRIAL	n/a	n/a	n/a	n/a	-999	0	21	[0, 0, 0]	n/a	0	1	0	n/a	n/a	0.0	0	0	0	catFR2	0	R1026D
2253.059	0.008	3651210	COUNTDOWN_END	n/a	n/a	n/a	n/a	-999	0	21	[0, 0, 0]	n/a	0	1	0	n/a	n/a	0.0	0	0	0	catFR2	0	R1026D
2253.067	1.6	3651223	ORIENT	n/a	n/a	n/a	n/a	-999	0	21	[0, 0, 0]	n/a	0	1	0	n/a	n/a	0.0	0	0	0	catFR2	0	R1026D
2256.807	4.6	3657207	STIM_ON	n/a	n/a	n/a	n/a	-999	0	21	[0, 0, 0]	n/a	1	1	4600	LPIG9	LPIG10	1500.0	50	230	300	catFR2	0	R1026D
2257.017	1.6	3657543	WORD	n/a	wordpools/wordpool_categorized_EN.txt	BIKE	Vehicles	1	1	21	[0, 0, 0]	n/a	1	1	4600	LPIG9	LPIG10	1500.0	50	230	300	catFR2	0	R1026D
2259.568	1.6	3661624	WORD	n/a	wordpools/wordpool_categorized_EN.txt	BOAT	Vehicles	2	1	21	[0, 0, 0]	n/a	1	1	4600	LPIG9	LPIG10	1500.0	50	230	300	catFR2	0	R1026D
2262.135	1.6	3665731	WORD	n/a	wordpools/wordpool_categorized_EN.txt	TIGER	Zoo	3	1	21	[0, 0, 0]	n/a	0	1	0	n/a	n/a	0.0	0	0	0	catFR2	0	R1026D
2264.635	1.6	3669731	WORD	n/a	wordpools/wordpool_categorized_EN.txt	CHEETAH	Zoo	4	1	21	[0, 0, 0]	n/a	0	1	0	n/a	n/a	0.0	0	0	0	catFR2	0	R1026D
2266.826	4.6	3673236	STIM_ON	n/a	n/a	n/a	n/a	-999	0	21	[0, 0, 0]	n/a	1	1	4600	LPIG9	LPIG10	1500.0	50	230	300	catFR2	0	R1026D
2267.036	1.6	3673572	WORD	n/a	wordpools/wordpool_categorized_EN.txt	DUCK	Birds	5	0	21	[0, 0, 0]	n/a	1	1	4600	LPIG9	LPIG10	1500.0	50	230	300	catFR2	0	R1026D
2269.57	1.6	3677627	WORD	n/a	wordpools/wordpool_categorized_EN.txt	FINCH	Birds	6	0	21	[0, 0, 0]	n/a	1	1	4600	LPIG9	LPIG10	1500.0	50	230	300	catFR2	0	R1026D
2272.003	1.6	3681519	WORD	n/a	wordpools/wordpool_categorized_EN.txt	CAR	Vehicles	7	1	21	[0, 0, 0]	n/a	0	1	0	n/a	n/a	0.0	0	0	0	catFR2	0	R1026D
2274.554	1.6	3685601	WORD	n/a	wordpools/wordpool_categorized_EN.txt	VAN	Vehicles	8	0	21	[0, 0, 0]	n/a	0	1	0	n/a	n/a	0.0	0	0	0	catFR2	0	R1026D
2276.737	4.6	3689093	STIM_ON	n/a	n/a	n/a	n/a	-999	0	21	[0, 0, 0]	n/a	1	1	4600	LPIG9	LPIG10	1500.0	50	230	300	catFR2	0	R1026D
2276.955	1.6	3689442	WORD	n/a	wordpools/wordpool_categorized_EN.txt	BLUEBIRD	Birds	9	1	21	[0, 0, 0]	n/a	1	1	4600	LPIG9	LPIG10	1500.0	50	230	300	catFR2	0	R1026D
2279.455	1.6	3693442	WORD	n/a	wordpools/wordpool_categorized_EN.txt	ROBIN	Birds	10	1	21	[0, 0, 0]	n/a	1	1	4600	LPIG9	LPIG10	1500.0	50	230	300	catFR2	0	R1026D
2281.906	1.6	3697363	WORD	n/a	wordpools/wordpool_categorized_EN.txt	MONKEY	Zoo	11	0	21	[0, 0, 0]	n/a	0	1	0	n/a	n/a	0.0	0	0	0	catFR2	0	R1026D
2284.339	1.6	3701256	WORD	n/a	wordpools/wordpool_categorized_EN.txt	GORILLA	Zoo	12	0	21	[0, 0, 0]	n/a	0	1	0	n/a	n/a	0.0	0	0	0	catFR2	0	R1026D
2285.957	0.001	3703845	DISTRACT_START	n/a	n/a	n/a	n/a	-999	0	21	[0, 0, 0]	n/a	0	1	0	n/a	n/a	0.0	0	0	0	catFR2	0	R1026D
2285.958	0.016	3703846	START	n/a	n/a	n/a	n/a	-999	0	21	[-999, -999, -999]	n/a	0	1	0	n/a	n/a	0.0	0	0	0	catFR2	0	R1026D
2285.974	4.65	3703872	PROB	4.621	n/a	n/a	n/a	-999	0	21	[8, 3, 3]	14	0	1	0	n/a	n/a	0.0	0	0	0	catFR2	0	R1026D
2290.624	2.833	3711311	PROB	2.803	n/a	n/a	n/a	-999	0	21	[9, 1, 8]	18	0	1	0	n/a	n/a	0.0	0	0	0	catFR2	0	R1026D
2293.457	5.452	3715844	PROB	5.419	n/a	n/a	n/a	-999	0	21	[9, 7, 9]	26	0	1	0	n/a	n/a	0.0	0	0	0	catFR2	0	R1026D
2298.909	7.052	3724567	PROB	7.015	n/a	n/a	n/a	-999	0	21	[6, 4, 9]	19	0	1	0	n/a	n/a	0.0	0	0	0	catFR2	0	R1026D
2305.961	5.755	3735849	PROB	5.755	n/a	n/a	n/a	-999	0	21	[9, 2, 7]	18	0	1	0	n/a	n/a	0.0	0	0	0	catFR2	0	R1026D
2311.716	0.012	3745057	STOP	n/a	n/a	n/a	n/a	-999	0	21	[-999, -999, -999]	n/a	0	1	0	n/a	n/a	0.0	0	0	0	catFR2	0	R1026D
2311.728	1.118	3745076	DISTRACT_END	n/a	n/a	n/a	n/a	-999	0	21	[0, 0, 0]	n/a	0	1	0	n/a	n/a	0.0	0	0	0	catFR2	0	R1026D
2312.846	4.606	3746865	REC_START	n/a	n/a	n/a	n/a	-999	0	21	[0, 0, 0]	n/a	0	1	0	n/a	n/a	0.0	0	0	0	catFR2	0	R1026D
2317.452	1.145	3754234	REC_WORD	4.606	n/a	BIKE	Vehicles	1	1	21	[0, 0, 0]	n/a	0	1	0	n/a	n/a	0.0	0	0	0	catFR2	0	R1026D
2318.597	1.48	3756066	REC_WORD	5.751	n/a	BOAT	Vehicles	2	1	21	[0, 0, 0]	n/a	0	1	0	n/a	n/a	0.0	0	0	0	catFR2	0	R1026D
2320.077	1.521	3758434	REC_WORD	7.231	n/a	TIGER	Zoo	3	1	21	[0, 0, 0]	n/a	0	1	0	n/a	n/a	0.0	0	0	0	catFR2	0	R1026D
2321.598	1.953	3760867	REC_WORD	8.752	n/a	CHEETAH	Zoo	4	1	21	[0, 0, 0]	n/a	0	1	0	n/a	n/a	0.0	0	0	0	catFR2	0	R1026D
2323.551	4.132	3763992	REC_WORD	10.705	n/a	SPARROW	n/a	-999	0	21	[0, 0, 0]	n/a	0	1	0	n/a	n/a	0.0	0	0	0	catFR2	0	R1026D
2327.683	4.201	3770603	REC_WORD	14.837	n/a	ROBIN	Birds	10	1	21	[0, 0, 0]	n/a	0	1	0	n/a	n/a	0.0	0	0	0	catFR2	0	R1026D
2331.884	9.589	3777324	REC_WORD	19.038	n/a	CAR	Vehicles	7	1	21	[0, 0, 0]	n/a	0	1	0	n/a	n/a	0.0	0	0	0	catFR2	0	R1026D
2341.473	1.384	3792666	REC_WORD	28.627	n/a	BLUEBIRD	Birds	9	1	21	[0, 0, 0]	n/a	0	1	0	n/a	n/a	0.0	0	0	0	catFR2	0	R1026D
2342.857	4.377	3794880	REC_END	n/a	n/a	n/a	n/a	-999	0	21	[0, 0, 0]	n/a	0	1	0	n/a	n/a	0.0	0	0	0	catFR2	0	R1026D
2347.234	10.0	3801883	COUNTDOWN_START	n/a	n/a	n/a	n/a	-999	0	22	[0, 0, 0]	n/a	0	0	0	n/a	n/a	0.0	0	0	0	catFR2	0	R1026D
2347.234	10.428	3801883	TRIAL	n/a	n/a	n/a	n/a	-999	0	22	[0, 0, 0]	n/a	0	0	0	n/a	n/a	0.0	0	0	0	catFR2	0	R1026D
2357.662	0.008	3818567	COUNTDOWN_END	n/a	n/a	n/a	n/a	-999	0	22	[0, 0, 0]	n/a	0	0	0	n/a	n/a	0.0	0	0	0	catFR2	0	R1026D
2357.67	1.6	3818580	ORIENT	n/a	n/a	n/a	n/a	-999	0	22	[0, 0, 0]	n/a	0	0	0	n/a	n/a	0.0	0	0	0	catFR2	0	R1026D
2361.537	1.6	3824766	WORD	n/a	wordpools/wordpool_categorized_EN.txt	SNOW	Weather	1	1	22	[0, 0, 0]	n/a	0	0	0	n/a	n/a	0.0	0	0	0	catFR2	0	R1026D
2364.07	1.6	3828819	WORD	n/a	wordpools/wordpool_categorized_EN.txt	DRIZZLE	Weather	2	1	22	[0, 0, 0]	n/a	0	0	0	n/a	n/a	0.0	0	0	0	catFR2	0	R1026D
2366.571	1.6	3832820	WORD	n/a	wordpools/wordpool_categorized_EN.txt	ELBOW	BodyParts	3	1	22	[0, 0, 0]	n/a	0	0	0	n/a	n/a	0.0	0	0	0	catFR2	0	R1026D
2369.021	1.6	3836740	WORD	n/a	wordpools/wordpool_categorized_EN.txt	TOE	BodyParts	4	1	22	[0, 0, 0]	n/a	0	0	0	n/a	n/a	0.0	0	0	0	catFR2	0	R1026D
2371.522	1.6	3840742	WORD	n/a	wordpools/wordpool_categorized_EN.txt	SQUID	OceanAnimals	5	0	22	[0, 0, 0]	n/a	0	0	0	n/a	n/a	0.0	0	0	0	catFR2	0	R1026D
2373.907	1.6	3844557	WORD	n/a	wordpools/wordpool_categorized_EN.txt	OCTOPUS	OceanAnimals	6	0	22	[0, 0, 0]	n/a	0	0	0	n/a	n/a	0.0	0	0	0	catFR2	0	R1026D
2376.289	1.6	3848369	WORD	n/a	wordpools/wordpool_categorized_EN.txt	NOSE	BodyParts	7	0	22	[0, 0, 0]	n/a	0	0	0	n/a	n/a	0.0	0	0	0	catFR2	0	R1026D
2378.857	1.6	3852477	WORD	n/a	wordpools/wordpool_categorized_EN.txt	ARM	BodyParts	8	0	22	[0, 0, 0]	n/a	0	0	0	n/a	n/a	0.0	0	0	0	catFR2	0	R1026D
2381.357	1.6	3856477	WORD	n/a	wordpools/wordpool_categorized_EN.txt	WIND	Weather	9	0	22	[0, 0, 0]	n/a	0	0	0	n/a	n/a	0.0	0	0	0	catFR2	0	R1026D
2383.958	1.6	3860638	WORD	n/a	wordpools/wordpool_categorized_EN.txt	THUNDER	Weather	10	0	22	[0, 0, 0]	n/a	0	0	0	n/a	n/a	0.0	0	0	0	catFR2	0	R1026D
2386.391	1.6	3864531	WORD	n/a	wordpools/wordpool_categorized_EN.txt	JELLYFISH	OceanAnimals	11	0	22	[0, 0, 0]	n/a	0	0	0	n/a	n/a	0.0	0	0	0	catFR2	0	R1026D
2388.893	1.6	3868534	WORD	n/a	wordpools/wordpool_categorized_EN.txt	DOLPHIN	OceanAnimals	12	0	22	[0, 0, 0]	n/a	0	0	0	n/a	n/a	0.0	0	0	0	catFR2	0	R1026D
2390.509	0.001	3871119	DISTRACT_START	n/a	n/a	n/a	n/a	-999	0	22	[0, 0, 0]	n/a	0	0	0	n/a	n/a	0.0	0	0	0	catFR2	0	R1026D
2390.51	0.015	3871121	START	n/a	n/a	n/a	n/a	-999	0	22	[-999, -999, -999]	n/a	0	0	0	n/a	n/a	0.0	0	0	0	catFR2	0	R1026D
2390.525	3.534	3871145	PROB	3.51	n/a	n/a	n/a	-999	0	22	[8, 5, 5]	18	0	0	0	n/a	n/a	0.0	0	0	0	catFR2	0	R1026D
2394.059	3.652	3876799	PROB	3.617	n/a	n/a	n/a	-999	0	22	[3, 6, 5]	14	0	0	0	n/a	n/a	0.0	0	0	0	catFR2	0	R1026D
2397.711	4.533	3882642	PROB	4.509	n/a	n/a	n/a	-999	0	22	[5, 7, 1]	13	0	0	0	n/a	n/a	0.0	0	0	0	catFR2	0	R1026D
2402.244	4.535	3889894	PROB	4.504	n/a	n/a	n/a	-999	0	22	[6, 2, 7]	15	0	0	0	n/a	n/a	0.0	0	0	0	catFR2	0	R1026D
2406.779	7.897	3897150	PROB	7.897	n/a	n/a	n/a	-999	0	22	[4, 7, 5]	16	0	0	0	n/a	n/a	0.0	0	0	0	catFR2	0	R1026D
2414.676	0.004	3909785	STOP	n/a	n/a	n/a	n/a	-999	0	22	[-999, -999, -999]	n/a	0	0	0	n/a	n/a	0.0	0	0	0	catFR2	0	R1026D
2414.68	1.151	3909791	DISTRACT_END	n/a	n/a	n/a	n/a	-999	0	22	[0, 0, 0]	n/a	0	0	0	n/a	n/a	0.0	0	0	0	catFR2	0	R1026D
2415.831	1.699	3911633	REC_START	n/a	n/a	n/a	n/a	-999	0	22	[0, 0, 0]	n/a	0	0	0	n/a	n/a	0.0	0	0	0	catFR2	0	R1026D
2417.53	1.656	3914351	REC_WORD	1.699	n/a	SNOW	Weather	1	1	22	[0, 0, 0]	n/a	0	0	0	n/a	n/a	0.0	0	0	0	catFR2	0	R1026D
2419.186	3.008	3917000	REC_WORD	3.355	n/a	DRIZZLE	Weather	2	1	22	[0, 0, 0]	n/a	0	0	0	n/a	n/a	0.0	0	0	0	catFR2	0	R1026D
