onset	duration	sample	trial_type	response_time	stim_file	item_name	category	serialpos	recalled	list	test	answer	stimulation	stim_list	stim_duration	anode_label	cathode_label	amplitude	pulse_freq	n_pulses	pulse_width	experiment	session	subject
0.0	24.846	101014	SESS_START	n/a	n/a	n/a	n/a	-999	0	-999	[0, 0, 0]	n/a	0	0	0	n/a	n/a	0.0	0	0	0	catFR2	0	R1041M
24.846	10.0	113436	COUNTDOWN_START	n/a	n/a	n/a	n/a	-999	0	-999	[0, 0, 0]	n/a	0	0	0	n/a	n/a	0.0	0	0	0	catFR2	0	R1041M
35.274	3.675	118649	COUNTDOWN_END	n/a	n/a	n/a	n/a	-999	0	-999	[0, 0, 0]	n/a	0	0	0	n/a	n/a	0.0	0	0	0	catFR2	0	R1041M
38.949	1.6	120487	PRACTICE_WORD	n/a	n/a	CHEST	n/a	-999	0	1	[0, 0, 0]	n/a	0	0	0	n/a	n/a	0.0	0	0	0	catFR2	0	R1041M
41.516	1.6	121770	PRACTICE_WORD	n/a	n/a	IRON	n/a	-999	0	2	[0, 0, 0]	n/a	0	0	0	n/a	n/a	0.0	0	0	0	catFR2	0	R1041M
44.017	1.6	123020	PRACTICE_WORD	n/a	n/a	BEAM	n/a	-999	0	3	[0, 0, 0]	n/a	0	0	0	n/a	n/a	0.0	0	0	0	catFR2	0	R1041M
46.468	1.6	124246	PRACTICE_WORD	n/a	n/a	RHINO	n/a	-999	0	4	[0, 0, 0]	n/a	0	0	0	n/a	n/a	0.0	0	0	0	catFR2	0	R1041M
48.984	1.6	125504	PRACTICE_WORD	n/a	n/a	WATCH	n/a	-999	0	5	[0, 0, 0]	n/a	0	0	0	n/a	n/a	0.0	0	0	0	catFR2	0	R1041M
51.385	1.6	126704	PRACTICE_WORD	n/a	n/a	ATTIC	n/a	-999	0	6	[0, 0, 0]	n/a	0	0	0	n/a	n/a	0.0	0	0	0	catFR2	0	R1041M
53.968	1.6	127995	PRACTICE_WORD	n/a	n/a	FLOOD	n/a	-999	0	7	[0, 0, 0]	n/a	0	0	0	n/a	n/a	0.0	0	0	0	catFR2	0	R1041M
56.569	1.6	129296	PRACTICE_WORD	n/a	n/a	COTTON	n/a	-999	0	8	[0, 0, 0]	n/a	0	0	0	n/a	n/a	0.0	0	0	0	catFR2	0	R1041M
59.187	1.6	130605	PRACTICE_WORD	n/a	n/a	TONGUE	n/a	-999	0	9	[0, 0, 0]	n/a	0	0	0	n/a	n/a	0.0	0	0	0	catFR2	0	R1041M
61.637	1.6	131829	PRACTICE_WORD	n/a	n/a	WAGON	n/a	-999	0	10	[0, 0, 0]	n/a	0	0	0	n/a	n/a	0.0	0	0	0	catFR2	0	R1041M
64.121	1.6	133071	PRACTICE_WORD	n/a	n/a	CAMEL	n/a	-999	0	11	[0, 0, 0]	n/a	0	0	0	n/a	n/a	0.0	0	0	0	catFR2	0	R1041M
66.538	1.6	134280	PRACTICE_WORD	n/a	n/a	RING	n/a	-999	0	12	[0, 0, 0]	n/a	0	0	0	n/a	n/a	0.0	0	0	0	catFR2	0	R1041M
68.155	0.001	135088	PRACTICE_DISTRACT_START	n/a	n/a	n/a	n/a	-999	0	-999	[0, 0, 0]	n/a	0	0	0	n/a	n/a	0.0	0	0	0	catFR2	0	R1041M
68.156	0.016	135089	START	n/a	n/a	n/a	n/a	-999	0	-1	[-999, -999, -999]	n/a	0	-999	0	n/a	n/a	0.0	0	0	0	catFR2	0	R1041M
68.172	14.97	135097	PROB	14.937	n/a	n/a	n/a	-999	0	-1	[8, 4, 9]	13	0	-999	0	n/a	n/a	0.0	0	0	0	catFR2	0	R1041M
83.142	11.445	142581	PROB	11.445	n/a	n/a	n/a	-999	0	-1	[9, 5, 6]	12	0	-999	0	n/a	n/a	0.0	0	0	0	catFR2	0	R1041M
94.587	0.006	148303	STOP	n/a	n/a	n/a	n/a	-999	0	-1	[-999, -999, -999]	n/a	0	-999	0	n/a	n/a	0.0	0	0	0	catFR2	0	R1041M
94.593	0.537	148306	PRACTICE_DISTRACT_END	n/a	n/a	n/a	n/a	-999	0	-999	[0, 0, 0]	n/a	0	0	0	n/a	n/a	0.0	0	0	0	catFR2	0	R1041M
95.13	30.513	148574	PRACTICE_REC_START	n/a	n/a	n/a	n/a	-999	0	-999	[0, 0, 0]	n/a	0	0	0	n/a	n/a	0.0	0	0	0	catFR2	0	R1041M
125.643	102.204	163829	PRACTICE_REC_END	n/a	n/a	n/a	n/a	-999	0	-999	[0, 0, 0]	n/a	0	0	0	n/a	n/a	0.0	0	0	0	catFR2	0	R1041M
227.847	41.147	214926	SESS_START	n/a	n/a	n/a	n/a	-999	0	-999	[0, 0, 0]	n/a	0	0	0	n/a	n/a	0.0	0	0	0	catFR2	0	R1041M
268.994	0.0	235497	TRIAL	n/a	n/a	n/a	n/a	-999	0	1	[0, 0, 0]	n/a	0	1	0	n/a	n/a	0.0	0	0	0	catFR2	0	R1041M
268.994	10.0	235497	COUNTDOWN_START	n/a	n/a	n/a	n/a	-999	0	1	[0, 0, 0]	n/a	0	1	0	n/a	n/a	0.0	0	0	0	catFR2	0	R1041M
279.422	0.007	240711	COUNTDOWN_END	n/a	n/a	n/a	n/a	-999	0	1	[0, 0, 0]	n/a	0	1	0	n/a	n/a	0.0	0	0	0	catFR2	0	R1041M
279.429	1.6	240714	ORIENT	n/a	n/a	n/a	n/a	-999	0	1	[0, 0, 0]	n/a	0	1	0	n/a	n/a	0.0	0	0	0	catFR2	0	R1041M
283.248	1.6	242623	WORD	n/a	wordpools/wordpool_categorized_EN.txt	MARKER	OfficeSupplies	1	0	1	[0, 0, 0]	n/a	0	1	0	n/a	n/a	0.0	0	0	0	catFR2	0	R1041M
285.714	1.6	243856	WORD	n/a	wordpools/wordpool_categorized_EN.txt	PENCIL	OfficeSupplies	2	1	1	[0, 0, 0]	n/a	0	1	0	n/a	n/a	0.0	0	0	0	catFR2	0	R1041M
288.04	4.6	245019	STIM_ON	n/a	n/a	n/a	n/a	-999	0	1	[0, 0, 0]	n/a	1	1	4600	LFG18	LFG25	3000.0	50	230	300	catFR2	0	R1041M
288.249	1.6	245124	WORD	n/a	wordpools/wordpool_categorized_EN.txt	BEACH	Landscapes	3	1	1	[0, 0, 0]	n/a	1	1	4600	LFG18	LFG25	3000.0	50	230	300	catFR2	0	R1041M
290.648	1.6	246323	WORD	n/a	wordpools/wordpool_categorized_EN.txt	ISLAND	Landscapes	4	0	1	[0, 0, 0]	n/a	1	1	4600	LFG18	LFG25	3000.0	50	230	300	catFR2	0	R1041M
293.116	1.6	247557	WORD	n/a	wordpools/wordpool_categorized_EN.txt	CELERY	Vegetables	5	0	1	[0, 0, 0]	n/a	0	1	0	n/a	n/a	0.0	0	0	0	catFR2	0	R1041M
295.499	1.6	248748	WORD	n/a	wordpools/wordpool_categorized_EN.txt	PEAS	Vegetables	6	0	1	[0, 0, 0]	n/a	0	1	0	n/a	n/a	0.0	0	0	0	catFR2	0	R1041M
297.689	4.6	249843	STIM_ON	n/a	n/a	n/a	n/a	-999	0	1	[0, 0, 0]	n/a	1	1	4600	LFG18	LFG25	3000.0	50	230	300	catFR2	0	R1041M
297.899	1.6	249948	WORD	n/a	wordpools/wordpool_categorized_EN.txt	GLUE	OfficeSupplies	7	0	1	[0, 0, 0]	n/a	1	1	4600	LFG18	LFG25	3000.0	50	230	300	catFR2	0	R1041M
300.483	1.6	251240	WORD	n/a	wordpools/wordpool_categorized_EN.txt	BINDER	OfficeSupplies	8	0	1	[0, 0, 0]	n/a	1	1	4600	LFG18	LFG25	3000.0	50	230	300	catFR2	0	R1041M
303.05	1.6	252523	WORD	n/a	wordpools/wordpool_categorized_EN.txt	LETTUCE	Vegetables	9	0	1	[0, 0, 0]	n/a	0	1	0	n/a	n/a	0.0	0	0	0	catFR2	0	R1041M
305.551	1.6	253774	WORD	n/a	wordpools/wordpool_categorized_EN.txt	ONION	Vegetables	10	0	1	[0, 0, 0]	n/a	0	1	0	n/a	n/a	0.0	0	0	0	catFR2	0	R1041M
307.881	4.6	254939	STIM_ON	n/a	n/a	n/a	n/a	-999	0	1	[0, 0, 0]	n/a	1	1	4600	LFG18	LFG25	3000.0	50	230	300	catFR2	0	R1041M
308.086	1.6	255041	WORD	n/a	wordpools/wordpool_categorized_EN.txt	STREAM	Landscapes	11	0	1	[0, 0, 0]	n/a	1	1	4600	LFG18	LFG25	3000.0	50	230	300	catFR2	0	R1041M
310.585	1.6	256290	WORD	n/a	wordpools/wordpool_categorized_EN.txt	VALLEY	Landscapes	12	0	1	[0, 0, 0]	n/a	1	1	4600	LFG18	LFG25	3000.0	50	230	300	catFR2	0	R1041M
312.203	0.001	257099	DISTRACT_START	n/a	n/a	n/a	n/a	-999	0	1	[0, 0, 0]	n/a	0	1	0	n/a	n/a	0.0	0	0	0	catFR2	0	R1041M
312.204	0.016	257100	START	n/a	n/a	n/a	n/a	-999	0	1	[-999, -999, -999]	n/a	0	1	0	n/a	n/a	0.0	0	0	0	catFR2	0	R1041M
312.22	6.517	257108	PROB	6.488	n/a	n/a	n/a	-999	0	1	[7, 4, 3]	11	0	1	0	n/a	n/a	0.0	0	0	0	catFR2	0	R1041M
318.737	2.351	260366	PROB	2.323	n/a	n/a	n/a	-999	0	1	[8, 3, 6]	11	0	1	0	n/a	n/a	0.0	0	0	0	catFR2	0	R1041M
321.088	1.566	261541	PROB	1.532	n/a	n/a	n/a	-999	0	1	[2, 6, 8]	11	0	1	0	n/a	n/a	0.0	0	0	0	catFR2	0	R1041M
322.654	1.267	262324	PROB	1.246	n/a	n/a	n/a	-999	0	1	[2, 7, 8]	11	0	1	0	n/a	n/a	0.0	0	0	0	catFR2	0	R1041M
323.921	1.235	262958	PROB	1.204	n/a	n/a	n/a	-999	0	1	[3, 1, 1]	11	0	1	0	n/a	n/a	0.0	0	0	0	catFR2	0	R1041M
325.156	1.282	263575	PROB	1.256	n/a	n/a	n/a	-999	0	1	[4, 8, 2]	11	0	1	0	n/a	n/a	0.0	0	0	0	catFR2	0	R1041M
326.438	1.284	264216	PROB	1.254	n/a	n/a	n/a	-999	0	1	[4, 9, 6]	11	0	1	0	n/a	n/a	0.0	0	0	0	catFR2	0	R1041M
327.722	1.35	264858	PROB	1.322	n/a	n/a	n/a	-999	0	1	[3, 1, 4]	11	0	1	0	n/a	n/a	0.0	0	0	0	catFR2	0	R1041M
329.072	1.4	265533	PROB	1.38	n/a	n/a	n/a	-999	0	1	[7, 8, 4]	11	0	1	0	n/a	n/a	0.0	0	0	0	catFR2	0	R1041M
330.472	1.201	266233	PROB	1.18	n/a	n/a	n/a	-999	0	1	[4, 6, 9]	11	0	1	0	n/a	n/a	0.0	0	0	0	catFR2	0	R1041M
331.673	1.147	266833	PROB	1.147	n/a	n/a	n/a	-999	0	1	[9, 6, 7]	11	0	1	0	n/a	n/a	0.0	0	0	0	catFR2	0	R1041M
332.82	0.02	267407	STOP	n/a	n/a	n/a	n/a	-999	0	1	[-999, -999, -999]	n/a	0	1	0	n/a	n/a	0.0	0	0	0	catFR2	0	R1041M
332.84	1.117	267417	DISTRACT_END	n/a	n/a	n/a	n/a	-999	0	1	[0, 0, 0]	n/a	0	1	0	n/a	n/a	0.0	0	0	0	catFR2	0	R1041M
333.957	9.875	267975	REC_START	n/a	n/a	n/a	n/a	-999	0	1	[0, 0, 0]	n/a	0	1	0	n/a	n/a	0.0	0	0	0	catFR2	0	R1041M
343.832	11.431	272912	REC_WORD	9.875	n/a	BEACH	Landscapes	3	1	1	[0, 0, 0]	n/a	0	1	0	n/a	n/a	0.0	0	0	0	catFR2	0	R1041M
355.263	8.705	278627	REC_WORD	21.306	n/a	PENCIL	OfficeSupplies	2	1	1	[0, 0, 0]	n/a	0	1	0	n/a	n/a	0.0	0	0	0	catFR2	0	R1041M
363.968	11.663	282979	REC_END	n/a	n/a	n/a	n/a	-999	0	1	[0, 0, 0]	n/a	0	1	0	n/a	n/a	0.0	0	0	0	catFR2	0	R1041M
375.631	0.0	288810	TRIAL	n/a	n/a	n/a	n/a	-999	0	2	[0, 0, 0]	n/a	0	1	0	n/a	n/a	0.0	0	0	0	catFR2	0	R1041M
375.631	10.0	288810	COUNTDOWN_START	n/a	n/a	n/a	n/a	-999	0	2	[0, 0, 0]	n/a	0	1	0	n/a	n/a	0.0	0	0	0	catFR2	0	R1041M
386.059	0.007	294024	COUNTDOWN_END	n/a	n/a	n/a	n/a	-999	0	2	[0, 0, 0]	n/a	0	1	0	n/a	n/a	0.0	0	0	0	catFR2	0	R1041M
386.066	1.6	294027	ORIENT	n/a	n/a	n/a	n/a	-999	0	2	[0, 0, 0]	n/a	0	1	0	n/a	n/a	0.0	0	0	0	catFR2	0	R1041M
389.427	4.6	295707	STIM_ON	n/a	n/a	n/a	n/a	-999	0	2	[0, 0, 0]	n/a	1	1	4600	LFG18	LFG25	3000.0	50	230	300	catFR2	0	R1041M
389.634	1.6	295811	WORD	n/a	wordpools/wordpool_categorized_EN.txt	ELM	Trees	1	0	2	[0, 0, 0]	n/a	1	1	4600	LFG18	LFG25	3000.0	50	230	300	catFR2	0	R1041M
392.185	1.6	297086	WORD	n/a	wordpools/wordpool_categorized_EN.txt	HICKORY	Trees	2	0	2	[0, 0, 0]	n/a	1	1	4600	LFG18	LFG25	3000.0	50	230	300	catFR2	0	R1041M
394.685	1.6	298336	WORD	n/a	wordpools/wordpool_categorized_EN.txt	LOBSTER	OceanAnimals	3	0	2	[0, 0, 0]	n/a	0	1	0	n/a	n/a	0.0	0	0	0	catFR2	0	R1041M
397.236	1.6	299611	WORD	n/a	wordpools/wordpool_categorized_EN.txt	SHRIMP	OceanAnimals	4	0	2	[0, 0, 0]	n/a	0	1	0	n/a	n/a	0.0	0	0	0	catFR2	0	R1041M
399.476	4.6	300731	STIM_ON	n/a	n/a	n/a	n/a	-999	0	2	[0, 0, 0]	n/a	1	1	4600	LFG18	LFG25	3000.0	50	230	300	catFR2	0	R1041M
399.686	1.6	300836	WORD	n/a	wordpools/wordpool_categorized_EN.txt	TIGER	Zoo	5	0	2	[0, 0, 0]	n/a	1	1	4600	LFG18	LFG25	3000.0	50	230	300	catFR2	0	R1041M
402.121	1.6	302054	WORD	n/a	wordpools/wordpool_categorized_EN.txt	MONKEY	Zoo	6	0	2	[0, 0, 0]	n/a	1	1	4600	LFG18	LFG25	3000.0	50	230	300	catFR2	0	R1041M
404.553	1.6	303270	WORD	n/a	wordpools/wordpool_categorized_EN.txt	TURTLE	OceanAnimals	7	0	2	[0, 0, 0]	n/a	0	1	0	n/a	n/a	0.0	0	0	0	catFR2	0	R1041M
406.971	1.6	304478	WORD	n/a	wordpools/wordpool_categorized_EN.txt	SQUID	OceanAnimals	8	0	2	[0, 0, 0]	n/a	0	1	0	n/a	n/a	0.0	0	0	0	catFR2	0	R1041M
409.16	4.6	305573	STIM_ON	n/a	n/a	n/a	n/a	-999	0	2	[0, 0, 0]	n/a	1	1	4600	LFG18	LFG25	3000.0	50	230	300	catFR2	0	R1041M
409.371	1.6	305678	WORD	n/a	wordpools/wordpool_categorized_EN.txt	OAK	Trees	9	0	2	[0, 0, 0]	n/a	1	1	4600	LFG18	LFG25	3000.0	50	230	300	catFR2	0	R1041M
411.888	1.6	306937	WORD	n/a	wordpools/wordpool_categorized_EN.txt	BIRCH	Trees	10	0	2	[0, 0, 0]	n/a	1	1	4600	LFG18	LFG25	3000.0	50	230	300	catFR2	0	R1041M
414.355	1.6	308170	WORD	n/a	wordpools/wordpool_categorized_EN.txt	CHEETAH	Zoo	11	1	2	[0, 0, 0]	n/a	0	1	0	n/a	n/a	0.0	0	0	0	catFR2	0	R1041M
416.806	1.6	309395	WORD	n/a	wordpools/wordpool_categorized_EN.txt	ZEBRA	Zoo	12	0	2	[0, 0, 0]	n/a	0	1	0	n/a	n/a	0.0	0	0	0	catFR2	0	R1041M
418.423	0.0	310204	DISTRACT_START	n/a	n/a	n/a	n/a	-999	0	2	[0, 0, 0]	n/a	0	1	0	n/a	n/a	0.0	0	0	0	catFR2	0	R1041M
418.423	0.016	310204	START	n/a	n/a	n/a	n/a	-999	0	2	[-999, -999, -999]	n/a	0	1	0	n/a	n/a	0.0	0	0	0	catFR2	0	R1041M
418.439	4.301	310212	PROB	4.269	n/a	n/a	n/a	-999	0	2	[9, 7, 7]	11	0	1	0	n/a	n/a	0.0	0	0	0	catFR2	0	R1041M
422.74	3.868	312362	PROB	3.848	n/a	n/a	n/a	-999	0	2	[1, 9, 1]	11	0	1	0	n/a	n/a	0.0	0	0	0	catFR2	0	R1041M
426.608	1.95	314296	PROB	1.924	n/a	n/a	n/a	-999	0	2	[1, 9, 8]	11	0	1	0	n/a	n/a	0.0	0	0	0	catFR2	0	R1041M
428.558	1.817	315271	PROB	1.782	n/a	n/a	n/a	-999	0	2	[8, 1, 8]	11	0	1	0	n/a	n/a	0.0	0	0	0	catFR2	0	R1041M
430.375	1.3	316179	PROB	1.277	n/a	n/a	n/a	-999	0	2	[1, 4, 2]	11	0	1	0	n/a	n/a	0.0	0	0	0	catFR2	0	R1041M
431.675	1.367	316829	PROB	1.337	n/a	n/a	n/a	-999	0	2	[3, 6, 1]	11	0	1	0	n/a	n/a	0.0	0	0	0	catFR2	0	R1041M
433.042	1.467	317513	PROB	1.434	n/a	n/a	n/a	-999	0	2	[4, 8, 9]	11	0	1	0	n/a	n/a	0.0	0	0	0	catFR2	0	R1041M
434.509	1.367	318246	PROB	1.335	n/a	n/a	n/a	-999	0	2	[6, 4, 2]	11	0	1	0	n/a	n/a	0.0	0	0	0	catFR2	0	R1041M
435.876	1.335	318929	PROB	1.297	n/a	n/a	n/a	-999	0	2	[8, 4, 5]	11	0	1	0	n/a	n/a	0.0	0	0	0	catFR2	0	R1041M
437.211	1.521	319597	PROB	1.521	n/a	n/a	n/a	-999	0	2	[3, 5, 3]	11	0	1	0	n/a	n/a	0.0	0	0	0	catFR2	0	R1041M
438.732	0.011	320357	STOP	n/a	n/a	n/a	n/a	-999	0	2	[-999, -999, -999]	n/a	0	1	0	n/a	n/a	0.0	0	0	0	catFR2	0	R1041M
438.743	1.118	320363	DISTRACT_END	n/a	n/a	n/a	n/a	-999	0	2	[0, 0, 0]	n/a	0	1	0	n/a	n/a	0.0	0	0	0	catFR2	0	R1041M
439.861	1.609	320922	REC_START	n/a	n/a	n/a	n/a	-999	0	2	[0, 0, 0]	n/a	0	1	0	n/a	n/a	0.0	0	0	0	catFR2	0	R1041M
441.47	28.402	321726	REC_WORD	1.609	n/a	CHEETAH	Zoo	11	1	2	[0, 0, 0]	n/a	0	1	0	n/a	n/a	0.0	0	0	0	catFR2	0	R1041M
469.872	8.512	335926	REC_END	n/a	n/a	n/a	n/a	-999	0	2	[0, 0, 0]	n/a	0	1	0	n/a	n/a	0.0	0	0	0	catFR2	0	R1041M
478.384	10.0	340181	COUNTDOWN_START	n/a	n/a	n/a	n/a	-999	0	3	[0, 0, 0]	n/a	0	1	0	n/a	n/a	0.0	0	0	0	catFR2	0	R1041M
478.385	10.427	340182	TRIAL	n/a	n/a	n/a	n/a	-999	0	3	[0, 0, 0]	n/a	0	1	0	n/a	n/a	0.0	0	0	0	catFR2	0	R1041M
488.812	0.008	345395	COUNTDOWN_END	n/a	n/a	n/a	n/a	-999	0	3	[0, 0, 0]	n/a	0	1	0	n/a	n/a	0.0	0	0	0	catFR2	0	R1041M
488.82	1.6	345399	ORIENT	n/a	n/a	n/a	n/a	-999	0	3	[0, 0, 0]	n/a	0	1	0	n/a	n/a	0.0	0	0	0	catFR2	0	R1041M
492.47	1.6	347224	WORD	n/a	wordpools/wordpool_categorized_EN.txt	UNDERWEAR	Clothing	1	1	3	[0, 0, 0]	n/a	0	1	0	n/a	n/a	0.0	0	0	0	catFR2	0	R1041M
494.988	1.6	348482	WORD	n/a	wordpools/wordpool_categorized_EN.txt	JACKET	Clothing	2	0	3	[0, 0, 0]	n/a	0	1	0	n/a	n/a	0.0	0	0	0	catFR2	0	R1041M
497.226	4.6	349601	STIM_ON	n/a	n/a	n/a	n/a	-999	0	3	[0, 0, 0]	n/a	1	1	4600	LFG18	LFG25	3000.0	50	230	300	catFR2	0	R1041M
497.438	1.6	349707	WORD	n/a	wordpools/wordpool_categorized_EN.txt	SOFA	Furniture	3	1	3	[0, 0, 0]	n/a	1	1	4600	LFG18	LFG25	3000.0	50	230	300	catFR2	0	R1041M
500.022	1.6	350999	WORD	n/a	wordpools/wordpool_categorized_EN.txt	BED	Furniture	4	0	3	[0, 0, 0]	n/a	1	1	4600	LFG18	LFG25	3000.0	50	230	300	catFR2	0	R1041M
502.506	1.6	352241	WORD	n/a	wordpools/wordpool_categorized_EN.txt	CREEK	Landscapes	5	0	3	[0, 0, 0]	n/a	0	1	0	n/a	n/a	0.0	0	0	0	catFR2	0	R1041M
505.006	1.6	353491	WORD	n/a	wordpools/wordpool_categorized_EN.txt	MOUNTAIN	Landscapes	6	0	3	[0, 0, 0]	n/a	0	1	0	n/a	n/a	0.0	0	0	0	catFR2	0	R1041M
507.346	4.6	354661	STIM_ON	n/a	n/a	n/a	n/a	-999	0	3	[0, 0, 0]	n/a	1	1	4600	LFG18	LFG25	3000.0	50	230	300	catFR2	0	R1041M
507.557	1.6	354766	WORD	n/a	wordpools/wordpool_categorized_EN.txt	DESK	Furniture	7	0	3	[0, 0, 0]	n/a	1	1	4600	LFG18	LFG25	3000.0	50	230	300	catFR2	0	R1041M
510.191	1.6	356083	WORD	n/a	wordpools/wordpool_categorized_EN.txt	BOOKCASE	Furniture	8	0	3	[0, 0, 0]	n/a	1	1	4600	LFG18	LFG25	3000.0	50	230	300	catFR2	0	R1041M
512.791	1.6	357383	WORD	n/a	wordpools/wordpool_categorized_EN.txt	SOCKS	Clothing	9	0	3	[0, 0, 0]	n/a	0	1	0	n/a	n/a	0.0	0	0	0	catFR2	0	R1041M
515.392	1.6	358683	WORD	n/a	wordpools/wordpool_categorized_EN.txt	SHOES	Clothing	10	0	3	[0, 0, 0]	n/a	0	1	0	n/a	n/a	0.0	0	0	0	catFR2	0	R1041M
517.702	4.6	359838	STIM_ON	n/a	n/a	n/a	n/a	-999	0	3	[0, 0, 0]	n/a	1	1	4600	LFG18	LFG25	3000.0	50	230	300	catFR2	0	R1041M
517.909	1.6	359942	WORD	n/a	wordpools/wordpool_categorized_EN.txt	OCEAN	Landscapes	11	0	3	[0, 0, 0]	n/a	1	1	4600	LFG18	LFG25	3000.0	50	230	300	catFR2	0	R1041M
520.376	1.6	361175	WORD	n/a	wordpools/wordpool_categorized_EN.txt	RIVER	Landscapes	12	0	3	[0, 0, 0]	n/a	1	1	4600	LFG18	LFG25	3000.0	50	230	300	catFR2	0	R1041M
521.993	0.001	361983	DISTRACT_START	n/a	n/a	n/a	n/a	-999	0	3	[0, 0, 0]	n/a	0	1	0	n/a	n/a	0.0	0	0	0	catFR2	0	R1041M
521.994	0.015	361984	START	n/a	n/a	n/a	n/a	-999	0	3	[-999, -999, -999]	n/a	0	1	0	n/a	n/a	0.0	0	0	0	catFR2	0	R1041M
522.009	6.385	361991	PROB	6.355	n/a	n/a	n/a	-999	0	3	[9, 9, 8]	11	0	1	0	n/a	n/a	0.0	0	0	0	catFR2	0	R1041M
528.394	1.617	365184	PROB	1.586	n/a	n/a	n/a	-999	0	3	[2, 9, 4]	11	0	1	0	n/a	n/a	0.0	0	0	0	catFR2	0	R1041M
530.011	1.268	365992	PROB	1.242	n/a	n/a	n/a	-999	0	3	[7, 8, 9]	11	0	1	0	n/a	n/a	0.0	0	0	0	catFR2	0	R1041M
531.279	1.166	366626	PROB	1.133	n/a	n/a	n/a	-999	0	3	[4, 1, 1]	11	0	1	0	n/a	n/a	0.0	0	0	0	catFR2	0	R1041M
532.445	1.233	367209	PROB	1.199	n/a	n/a	n/a	-999	0	3	[8, 6, 7]	11	0	1	0	n/a	n/a	0.0	0	0	0	catFR2	0	R1041M
533.678	1.184	367825	PROB	1.15	n/a	n/a	n/a	-999	0	3	[9, 2, 5]	11	0	1	0	n/a	n/a	0.0	0	0	0	catFR2	0	R1041M
534.862	1.1	368417	PROB	1.07	n/a	n/a	n/a	-999	0	3	[8, 2, 2]	11	0	1	0	n/a	n/a	0.0	0	0	0	catFR2	0	R1041M
535.962	1.318	368967	PROB	1.283	n/a	n/a	n/a	-999	0	3	[1, 3, 1]	11	0	1	0	n/a	n/a	0.0	0	0	0	catFR2	0	R1041M
537.28	1.183	369626	PROB	1.148	n/a	n/a	n/a	-999	0	3	[3, 3, 6]	11	0	1	0	n/a	n/a	0.0	0	0	0	catFR2	0	R1041M
538.463	1.083	370218	PROB	1.053	n/a	n/a	n/a	-999	0	3	[5, 7, 8]	11	0	1	0	n/a	n/a	0.0	0	0	0	catFR2	0	R1041M
539.546	1.067	370759	PROB	1.042	n/a	n/a	n/a	-999	0	3	[7, 8, 1]	11	0	1	0	n/a	n/a	0.0	0	0	0	catFR2	0	R1041M
540.613	1.15	371292	PROB	1.119	n/a	n/a	n/a	-999	0	3	[9, 9, 6]	11	0	1	0	n/a	n/a	0.0	0	0	0	catFR2	0	R1041M
541.763	1.153	371867	PROB	1.153	n/a	n/a	n/a	-999	0	3	[2, 4, 1]	11	0	1	0	n/a	n/a	0.0	0	0	0	catFR2	0	R1041M
542.916	0.014	372444	STOP	n/a	n/a	n/a	n/a	-999	0	3	[-999, -999, -999]	n/a	0	1	0	n/a	n/a	0.0	0	0	0	catFR2	0	R1041M
542.93	1.034	372451	DISTRACT_END	n/a	n/a	n/a	n/a	-999	0	3	[0, 0, 0]	n/a	0	1	0	n/a	n/a	0.0	0	0	0	catFR2	0	R1041M
543.964	8.638	372968	REC_START	n/a	n/a	n/a	n/a	-999	0	3	[0, 0, 0]	n/a	0	1	0	n/a	n/a	0.0	0	0	0	catFR2	0	R1041M
552.602	6.474	377286	REC_WORD	8.638	n/a	SOFA	Furniture	3	1	3	[0, 0, 0]	n/a	0	1	0	n/a	n/a	0.0	0	0	0	catFR2	0	R1041M
559.076	14.899	380523	REC_WORD	15.112	n/a	UNDERWEAR	Clothing	1	1	3	[0, 0, 0]	n/a	0	1	0	n/a	n/a	0.0	0	0	0	catFR2	0	R1041M
573.975	7.546	387972	REC_END	n/a	n/a	n/a	n/a	-999	0	3	[0, 0, 0]	n/a	0	1	0	n/a	n/a	0.0	0	0	0	catFR2	0	R1041M
581.521	0.0	391744	TRIAL	n/a	n/a	n/a	n/a	-999	0	4	[0, 0, 0]	n/a	0	0	0	n/a	n/a	0.0	0	0	0	catFR2	0	R1041M
581.521	10.0	391744	COUNTDOWN_START	n/a	n/a	n/a	n/a	-999	0	4	[0, 0, 0]	n/a	0	0	0	n/a	n/a	0.0	0	0	0	catFR2	0	R1041M
591.949	0.007	396958	COUNTDOWN_END	n/a	n/a	n/a	n/a	-999	0	4	[0, 0, 0]	n/a	0	0	0	n/a	n/a	0.0	0	0	0	catFR2	0	R1041M
591.956	1.6	396961	ORIENT	n/a	n/a	n/a	n/a	-999	0	4	[0, 0, 0]	n/a	0	0	0	n/a	n/a	0.0	0	0	0	catFR2	0	R1041M
595.79	1.6	398878	WORD	n/a	wordpools/wordpool_categorized_EN.txt	SAW	Tools	1	0	4	[0, 0, 0]	n/a	0	0	0	n/a	n/a	0.0	0	0	0	catFR2	0	R1041M
598.259	1.6	400112	WORD	n/a	wordpools/wordpool_categorized_EN.txt	HAMMER	Tools	2	0	4	[0, 0, 0]	n/a	0	0	0	n/a	n/a	0.0	0	0	0	catFR2	0	R1041M
600.891	1.6	401428	WORD	n/a	wordpools/wordpool_categorized_EN.txt	CUPCAKE	Desserts	3	1	4	[0, 0, 0]	n/a	0	0	0	n/a	n/a	0.0	0	0	0	catFR2	0	R1041M
603.293	1.6	402629	WORD	n/a	wordpools/wordpool_categorized_EN.txt	PASTRY	Desserts	4	0	4	[0, 0, 0]	n/a	0	0	0	n/a	n/a	0.0	0	0	0	catFR2	0	R1041M
605.726	1.6	403846	WORD	n/a	wordpools/wordpool_categorized_EN.txt	CUCUMBER	Vegetables	5	0	4	[0, 0, 0]	n/a	0	0	0	n/a	n/a	0.0	0	0	0	catFR2	0	R1041M
608.327	1.6	405146	WORD	n/a	wordpools/wordpool_categorized_EN.txt	CARROT	Vegetables	6	0	4	[0, 0, 0]	n/a	0	0	0	n/a	n/a	0.0	0	0	0	catFR2	0	R1041M
610.893	1.6	406429	WORD	n/a	wordpools/wordpool_categorized_EN.txt	PLIERS	Tools	7	0	4	[0, 0, 0]	n/a	0	0	0	n/a	n/a	0.0	0	0	0	catFR2	0	R1041M
613.344	1.6	407654	WORD	n/a	wordpools/wordpool_categorized_EN.txt	WRENCH	Tools	8	0	4	[0, 0, 0]	n/a	0	0	0	n/a	n/a	0.0	0	0	0	catFR2	0	R1041M
615.744	1.6	408854	WORD	n/a	wordpools/wordpool_categorized_EN.txt	POTATO	Vegetables	9	0	4	[0, 0, 0]	n/a	0	0	0	n/a	n/a	0.0	0	0	0	catFR2	0	R1041M
618.196	1.6	410080	WORD	n/a	wordpools/wordpool_categorized_EN.txt	BROCCOLI	Vegetables	10	1	4	[0, 0, 0]	n/a	0	0	0	n/a	n/a	0.0	0	0	0	catFR2	0	R1041M
620.779	1.6	411371	WORD	n/a	wordpools/wordpool_categorized_EN.txt	JELLO	Desserts	11	0	4	[0, 0, 0]	n/a	0	0	0	n/a	n/a	0.0	0	0	0	catFR2	0	R1041M
623.296	1.6	412630	WORD	n/a	wordpools/wordpool_categorized_EN.txt	CHEESECAKE	Desserts	12	0	4	[0, 0, 0]	n/a	0	0	0	n/a	n/a	0.0	0	0	0	catFR2	0	R1041M
624.913	0.001	413438	DISTRACT_START	n/a	n/a	n/a	n/a	-999	0	4	[0, 0, 0]	n/a	0	0	0	n/a	n/a	0.0	0	0	0	catFR2	0	R1041M
624.914	0.015	413439	START	n/a	n/a	n/a	n/a	-999	0	4	[-999, -999, -999]	n/a	0	0	0	n/a	n/a	0.0	0	0	0	catFR2	0	R1041M
624.929	7.118	413446	PROB	7.091	n/a	n/a	n/a	-999	0	4	[8, 1, 1]	11	0	0	0	n/a	n/a	0.0	0	0	0	catFR2	0	R1041M
632.047	1.451	417005	PROB	1.429	n/a	n/a	n/a	-999	0	4	[1, 5, 9]	11	0	0	0	n/a	n/a	0.0	0	0	0	catFR2	0	R1041M
633.498	1.117	417730	PROB	1.082	n/a	n/a	n/a	-999	0	4	[3, 8, 2]	11	0	0	0	n/a	n/a	0.0	0	0	0	catFR2	0	R1041M
634.615	1.133	418289	PROB	1.109	n/a	n/a	n/a	-999	0	4	[9, 9, 3]	11	0	0	0	n/a	n/a	0.0	0	0	0	catFR2	0	R1041M
635.748	1.067	418855	PROB	1.04	n/a	n/a	n/a	-999	0	4	[1, 7, 4]	11	0	0	0	n/a	n/a	0.0	0	0	0	catFR2	0	R1041M
636.815	1.1	419388	PROB	1.069	n/a	n/a	n/a	-999	0	4	[6, 6, 1]	11	0	0	0	n/a	n/a	0.0	0	0	0	catFR2	0	R1041M
637.915	1.368	419938	PROB	1.346	n/a	n/a	n/a	-999	0	4	[5, 2, 3]	11	0	0	0	n/a	n/a	0.0	0	0	0	catFR2	0	R1041M
639.283	1.099	420622	PROB	1.065	n/a	n/a	n/a	-999	0	4	[9, 9, 1]	11	0	0	0	n/a	n/a	0.0	0	0	0	catFR2	0	R1041M
640.382	1.251	421172	PROB	1.222	n/a	n/a	n/a	-999	0	4	[4, 9, 1]	11	0	0	0	n/a	n/a	0.0	0	0	0	catFR2	0	R1041M
641.633	1.183	421797	PROB	1.163	n/a	n/a	n/a	-999	0	4	[1, 4, 2]	11	0	0	0	n/a	n/a	0.0	0	0	0	catFR2	0	R1041M
642.816	1.084	422389	PROB	1.052	n/a	n/a	n/a	-999	0	4	[3, 3, 5]	11	0	0	0	n/a	n/a	0.0	0	0	0	catFR2	0	R1041M
643.9	1.776	422931	PROB	1.776	n/a	n/a	n/a	-999	0	4	[5, 5, 5]	11	0	0	0	n/a	n/a	0.0	0	0	0	catFR2	0	R1041M
645.676	0.007	423819	STOP	n/a	n/a	n/a	n/a	-999	0	4	[-999, -999, -999]	n/a	0	0	0	n/a	n/a	0.0	0	0	0	catFR2	0	R1041M
645.683	1.135	423822	DISTRACT_END	n/a	n/a	n/a	n/a	-999	0	4	[0, 0, 0]	n/a	0	0	0	n/a	n/a	0.0	0	0	0	catFR2	0	R1041M
646.818	1.813	424389	REC_START	n/a	n/a	n/a	n/a	-999	0	4	[0, 0, 0]	n/a	0	0	0	n/a	n/a	0.0	0	0	0	catFR2	0	R1041M
648.631	15.072	425296	REC_WORD	1.813	n/a	CUPCAKE	Desserts	3	1	4	[0, 0, 0]	n/a	0	0	0	n/a	n/a	0.0	0	0	0	catFR2	0	R1041M
663.703	13.126	432831	REC_WORD	16.885	n/a	BROCCOLI	Vegetables	10	1	4	[0, 0, 0]	n/a	0	0	0	n/a	n/a	0.0	0	0	0	catFR2	0	R1041M
676.829	21.865	439393	REC_END	n/a	n/a	n/a	n/a	-999	0	4	[0, 0, 0]	n/a	0	0	0	n/a	n/a	0.0	0	0	0	catFR2	0	R1041M
698.694	0.0	450325	TRIAL	n/a	n/a	n/a	n/a	-999	0	5	[0, 0, 0]	n/a	0	1	0	n/a	n/a	0.0	0	0	0	catFR2	0	R1041M
698.694	10.0	450325	COUNTDOWN_START	n/a	n/a	n/a	n/a	-999	0	5	[0, 0, 0]	n/a	0	1	0	n/a	n/a	0.0	0	0	0	catFR2	0	R1041M
709.122	0.008	455538	COUNTDOWN_END	n/a	n/a	n/a	n/a	-999	0	5	[0, 0, 0]	n/a	0	1	0	n/a	n/a	0.0	0	0	0	catFR2	0	R1041M
709.13	1.6	455542	ORIENT	n/a	n/a	n/a	n/a	-999	0	5	[0, 0, 0]	n/a	0	1	0	n/a	n/a	0.0	0	0	0	catFR2	0	R1041M
712.492	4.6	457223	STIM_ON	n/a	n/a	n/a	n/a	-999	0	5	[0, 0, 0]	n/a	1	1	4600	LFG18	LFG25	3000.0	50	230	300	catFR2	0	R1041M
712.696	1.6	457325	WORD	n/a	wordpools/wordpool_categorized_EN.txt	BLOUSE	Clothing	1	1	5	[0, 0, 0]	n/a	1	1	4600	LFG18	LFG25	3000.0	50	230	300	catFR2	0	R1041M
715.298	1.6	458626	WORD	n/a	wordpools/wordpool_categorized_EN.txt	COAT	Clothing	2	1	5	[0, 0, 0]	n/a	1	1	4600	LFG18	LFG25	3000.0	50	230	300	catFR2	0	R1041M
717.864	1.6	459909	WORD	n/a	wordpools/wordpool_categorized_EN.txt	SNOW	Weather	3	0	5	[0, 0, 0]	n/a	0	1	0	n/a	n/a	0.0	0	0	0	catFR2	0	R1041M
720.398	1.6	461176	WORD	n/a	wordpools/wordpool_categorized_EN.txt	WIND	Weather	4	0	5	[0, 0, 0]	n/a	0	1	0	n/a	n/a	0.0	0	0	0	catFR2	0	R1041M
722.796	4.6	462374	STIM_ON	n/a	n/a	n/a	n/a	-999	0	5	[0, 0, 0]	n/a	1	1	4600	LFG18	LFG25	3000.0	50	230	300	catFR2	0	R1041M
722.998	1.6	462475	WORD	n/a	wordpools/wordpool_categorized_EN.txt	BROWNIES	Desserts	5	0	5	[0, 0, 0]	n/a	1	1	4600	LFG18	LFG25	3000.0	50	230	300	catFR2	0	R1041M
725.432	1.6	463692	WORD	n/a	wordpools/wordpool_categorized_EN.txt	FUDGE	Desserts	6	0	5	[0, 0, 0]	n/a	1	1	4600	LFG18	LFG25	3000.0	50	230	300	catFR2	0	R1041M
727.833	1.6	464893	WORD	n/a	wordpools/wordpool_categorized_EN.txt	THUNDERSTORM	Weather	7	0	5	[0, 0, 0]	n/a	0	1	0	n/a	n/a	0.0	0	0	0	catFR2	0	R1041M
730.284	1.6	466118	WORD	n/a	wordpools/wordpool_categorized_EN.txt	THUNDER	Weather	8	0	5	[0, 0, 0]	n/a	0	1	0	n/a	n/a	0.0	0	0	0	catFR2	0	R1041M
732.497	4.6	467224	STIM_ON	n/a	n/a	n/a	n/a	-999	0	5	[0, 0, 0]	n/a	1	1	4600	LFG18	LFG25	3000.0	50	230	300	catFR2	0	R1041M
732.7	1.6	467326	WORD	n/a	wordpools/wordpool_categorized_EN.txt	SKIRT	Clothing	9	1	5	[0, 0, 0]	n/a	1	1	4600	LFG18	LFG25	3000.0	50	230	300	catFR2	0	R1041M
735.202	1.6	468577	WORD	n/a	wordpools/wordpool_categorized_EN.txt	JEANS	Clothing	10	1	5	[0, 0, 0]	n/a	1	1	4600	LFG18	LFG25	3000.0	50	230	300	catFR2	0	R1041M
737.785	1.6	469868	WORD	n/a	wordpools/wordpool_categorized_EN.txt	PIE	Desserts	11	0	5	[0, 0, 0]	n/a	0	1	0	n/a	n/a	0.0	0	0	0	catFR2	0	R1041M
740.236	1.6	471094	WORD	n/a	wordpools/wordpool_categorized_EN.txt	CAKE	Desserts	12	0	5	[0, 0, 0]	n/a	0	1	0	n/a	n/a	0.0	0	0	0	catFR2	0	R1041M
741.852	0.001	471901	DISTRACT_START	n/a	n/a	n/a	n/a	-999	0	5	[0, 0, 0]	n/a	0	1	0	n/a	n/a	0.0	0	0	0	catFR2	0	R1041M
741.853	0.016	471902	START	n/a	n/a	n/a	n/a	-999	0	5	[-999, -999, -999]	n/a	0	1	0	n/a	n/a	0.0	0	0	0	catFR2	0	R1041M
741.869	5.134	471910	PROB	5.111	n/a	n/a	n/a	-999	0	5	[5, 5, 8]	11	0	1	0	n/a	n/a	0.0	0	0	0	catFR2	0	R1041M
747.003	1.367	474477	PROB	1.337	n/a	n/a	n/a	-999	0	5	[9, 5, 9]	11	0	1	0	n/a	n/a	0.0	0	0	0	catFR2	0	R1041M
748.37	1.067	475160	PROB	1.034	n/a	n/a	n/a	-999	0	5	[4, 7, 6]	11	0	1	0	n/a	n/a	0.0	0	0	0	catFR2	0	R1041M
749.437	1.2	475694	PROB	1.167	n/a	n/a	n/a	-999	0	5	[4, 9, 5]	11	0	1	0	n/a	n/a	0.0	0	0	0	catFR2	0	R1041M
750.637	1.15	476294	PROB	1.119	n/a	n/a	n/a	-999	0	5	[5, 1, 9]	11	0	1	0	n/a	n/a	0.0	0	0	0	catFR2	0	R1041M
751.787	1.067	476868	PROB	1.041	n/a	n/a	n/a	-999	0	5	[2, 6, 6]	11	0	1	0	n/a	n/a	0.0	0	0	0	catFR2	0	R1041M
752.854	1.1	477402	PROB	1.07	n/a	n/a	n/a	-999	0	5	[8, 6, 1]	11	0	1	0	n/a	n/a	0.0	0	0	0	catFR2	0	R1041M
753.954	1.117	477952	PROB	1.082	n/a	n/a	n/a	-999	0	5	[7, 1, 8]	11	0	1	0	n/a	n/a	0.0	0	0	0	catFR2	0	R1041M
755.071	1.085	478510	PROB	1.062	n/a	n/a	n/a	-999	0	5	[9, 2, 6]	11	0	1	0	n/a	n/a	0.0	0	0	0	catFR2	0	R1041M
756.156	1.067	479053	PROB	1.033	n/a	n/a	n/a	-999	0	5	[8, 5, 5]	11	0	1	0	n/a	n/a	0.0	0	0	0	catFR2	0	R1041M
757.223	1.016	479586	PROB	0.99	n/a	n/a	n/a	-999	0	5	[3, 7, 6]	11	0	1	0	n/a	n/a	0.0	0	0	0	catFR2	0	R1041M
758.239	1.051	480094	PROB	1.022	n/a	n/a	n/a	-999	0	5	[1, 1, 3]	11	0	1	0	n/a	n/a	0.0	0	0	0	catFR2	0	R1041M
759.29	1.132	480620	PROB	1.098	n/a	n/a	n/a	-999	0	5	[8, 5, 9]	11	0	1	0	n/a	n/a	0.0	0	0	0	catFR2	0	R1041M
760.422	1.05	481186	PROB	1.014	n/a	n/a	n/a	-999	0	5	[4, 4, 5]	11	0	1	0	n/a	n/a	0.0	0	0	0	catFR2	0	R1041M
761.472	1.028	481710	PROB	1.028	n/a	n/a	n/a	-999	0	5	[5, 7, 5]	11	0	1	0	n/a	n/a	0.0	0	0	0	catFR2	0	R1041M
762.5	0.006	482224	STOP	n/a	n/a	n/a	n/a	-999	0	5	[-999, -999, -999]	n/a	0	1	0	n/a	n/a	0.0	0	0	0	catFR2	0	R1041M
762.506	1.067	482227	DISTRACT_END	n/a	n/a	n/a	n/a	-999	0	5	[0, 0, 0]	n/a	0	1	0	n/a	n/a	0.0	0	0	0	catFR2	0	R1041M
763.573	1.22	482761	REC_START	n/a	n/a	n/a	n/a	-999	0	5	[0, 0, 0]	n/a	0	1	0	n/a	n/a	0.0	0	0	0	catFR2	0	R1041M
764.793	1.988	483371	REC_WORD	1.22	n/a	CUPCAKE	n/a	-999	0	5	[0, 0, 0]	n/a	0	1	0	n/a	n/a	0.0	0	0	0	catFR2	0	R1041M
766.781	5.238	484365	REC_WORD	3.208	n/a	BLOUSE	Clothing	1	1	5	[0, 0, 0]	n/a	0	1	0	n/a	n/a	0.0	0	0	0	catFR2	0	R1041M
772.019	6.937	486983	REC_WORD	8.446	n/a	COAT	Clothing	2	1	5	[0, 0, 0]	n/a	0	1	0	n/a	n/a	0.0	0	0	0	catFR2	0	R1041M
778.956	10.928	490452	REC_WORD	15.383	n/a	JEANS	Clothing	10	1	5	[0, 0, 0]	n/a	0	1	0	n/a	n/a	0.0	0	0	0	catFR2	0	R1041M
789.884	3.704	495915	REC_WORD	26.311	n/a	SKIRT	Clothing	9	1	5	[0, 0, 0]	n/a	0	1	0	n/a	n/a	0.0	0	0	0	catFR2	0	R1041M
793.588	12.711	497767	REC_END	n/a	n/a	n/a	n/a	-999	0	5	[0, 0, 0]	n/a	0	1	0	n/a	n/a	0.0	0	0	0	catFR2	0	R1041M
806.299	0.0	504122	TRIAL	n/a	n/a	n/a	n/a	-999	0	6	[0, 0, 0]	n/a	0	1	0	n/a	n/a	0.0	0	0	0	catFR2	0	R1041M
806.299	10.0	504122	COUNTDOWN_START	n/a	n/a	n/a	n/a	-999	0	6	[0, 0, 0]	n/a	0	1	0	n/a	n/a	0.0	0	0	0	catFR2	0	R1041M
816.727	0.006	509335	COUNTDOWN_END	n/a	n/a	n/a	n/a	-999	0	6	[0, 0, 0]	n/a	0	1	0	n/a	n/a	0.0	0	0	0	catFR2	0	R1041M
816.733	1.6	509338	ORIENT	n/a	n/a	n/a	n/a	-999	0	6	[0, 0, 0]	n/a	0	1	0	n/a	n/a	0.0	0	0	0	catFR2	0	R1041M
820.072	4.6	511007	STIM_ON	n/a	n/a	n/a	n/a	-999	0	6	[0, 0, 0]	n/a	1	1	4600	LFG18	LFG25	3000.0	50	230	300	catFR2	0	R1041M
820.285	1.6	511114	WORD	n/a	wordpools/wordpool_categorized_EN.txt	ROOF	Building	1	0	6	[0, 0, 0]	n/a	1	1	4600	LFG18	LFG25	3000.0	50	230	300	catFR2	0	R1041M
822.868	1.6	512405	WORD	n/a	wordpools/wordpool_categorized_EN.txt	ROOM	Building	2	0	6	[0, 0, 0]	n/a	1	1	4600	LFG18	LFG25	3000.0	50	230	300	catFR2	0	R1041M
825.286	1.6	513614	WORD	n/a	wordpools/wordpool_categorized_EN.txt	STRAWBERRY	Fruit	3	0	6	[0, 0, 0]	n/a	0	1	0	n/a	n/a	0.0	0	0	0	catFR2	0	R1041M
827.885	1.6	514914	WORD	n/a	wordpools/wordpool_categorized_EN.txt	PEAR	Fruit	4	0	6	[0, 0, 0]	n/a	0	1	0	n/a	n/a	0.0	0	0	0	catFR2	0	R1041M
830.182	4.6	516062	STIM_ON	n/a	n/a	n/a	n/a	-999	0	6	[0, 0, 0]	n/a	1	1	4600	LFG18	LFG25	3000.0	50	230	300	catFR2	0	R1041M
830.386	1.6	516164	WORD	n/a	wordpools/wordpool_categorized_EN.txt	STEREO	Electronics	5	1	6	[0, 0, 0]	n/a	1	1	4600	LFG18	LFG25	3000.0	50	230	300	catFR2	0	R1041M
832.77	1.6	517356	WORD	n/a	wordpools/wordpool_categorized_EN.txt	RADIO	Electronics	6	0	6	[0, 0, 0]	n/a	1	1	4600	LFG18	LFG25	3000.0	50	230	300	catFR2	0	R1041M
835.154	1.6	518548	WORD	n/a	wordpools/wordpool_categorized_EN.txt	BATHROOM	Building	7	1	6	[0, 0, 0]	n/a	0	1	0	n/a	n/a	0.0	0	0	0	catFR2	0	R1041M
837.554	1.6	519748	WORD	n/a	wordpools/wordpool_categorized_EN.txt	ATTIC	Building	8	0	6	[0, 0, 0]	n/a	0	1	0	n/a	n/a	0.0	0	0	0	catFR2	0	R1041M
839.838	4.6	520889	STIM_ON	n/a	n/a	n/a	n/a	-999	0	6	[0, 0, 0]	n/a	1	1	4600	LFG18	LFG25	3000.0	50	230	300	catFR2	0	R1041M
840.054	1.6	520997	WORD	n/a	wordpools/wordpool_categorized_EN.txt	COMPUTER	Electronics	9	1	6	[0, 0, 0]	n/a	1	1	4600	LFG18	LFG25	3000.0	50	230	300	catFR2	0	R1041M
842.638	1.6	522289	WORD	n/a	wordpools/wordpool_categorized_EN.txt	HEADPHONES	Electronics	10	1	6	[0, 0, 0]	n/a	1	1	4600	LFG18	LFG25	3000.0	50	230	300	catFR2	0	R1041M
845.173	1.6	523557	WORD	n/a	wordpools/wordpool_categorized_EN.txt	PEACH	Fruit	11	0	6	[0, 0, 0]	n/a	0	1	0	n/a	n/a	0.0	0	0	0	catFR2	0	R1041M
847.606	1.6	524773	WORD	n/a	wordpools/wordpool_categorized_EN.txt	BLUEBERRY	Fruit	12	1	6	[0, 0, 0]	n/a	0	1	0	n/a	n/a	0.0	0	0	0	catFR2	0	R1041M
849.224	0.001	525582	DISTRACT_START	n/a	n/a	n/a	n/a	-999	0	6	[0, 0, 0]	n/a	0	1	0	n/a	n/a	0.0	0	0	0	catFR2	0	R1041M
849.225	0.015	525582	START	n/a	n/a	n/a	n/a	-999	0	6	[-999, -999, -999]	n/a	0	1	0	n/a	n/a	0.0	0	0	0	catFR2	0	R1041M
849.24	5.551	525590	PROB	5.524	n/a	n/a	n/a	-999	0	6	[1, 2, 2]	11	0	1	0	n/a	n/a	0.0	0	0	0	catFR2	0	R1041M
854.791	1.467	528365	PROB	1.438	n/a	n/a	n/a	-999	0	6	[5, 6, 5]	11	0	1	0	n/a	n/a	0.0	0	0	0	catFR2	0	R1041M
856.258	1.017	529099	PROB	0.987	n/a	n/a	n/a	-999	0	6	[7, 9, 7]	11	0	1	0	n/a	n/a	0.0	0	0	0	catFR2	0	R1041M
857.275	0.984	529607	PROB	0.962	n/a	n/a	n/a	-999	0	6	[5, 6, 4]	11	0	1	0	n/a	n/a	0.0	0	0	0	catFR2	0	R1041M
858.259	0.983	530099	PROB	0.962	n/a	n/a	n/a	-999	0	6	[4, 9, 3]	11	0	1	0	n/a	n/a	0.0	0	0	0	catFR2	0	R1041M
859.242	1.0	530590	PROB	0.971	n/a	n/a	n/a	-999	0	6	[7, 4, 8]	11	0	1	0	n/a	n/a	0.0	0	0	0	catFR2	0	R1041M
860.242	1.001	531090	PROB	0.979	n/a	n/a	n/a	-999	0	6	[3, 8, 7]	11	0	1	0	n/a	n/a	0.0	0	0	0	catFR2	0	R1041M
861.243	1.033	531591	PROB	1.01	n/a	n/a	n/a	-999	0	6	[1, 1, 4]	11	0	1	0	n/a	n/a	0.0	0	0	0	catFR2	0	R1041M
862.276	1.066	532107	PROB	1.041	n/a	n/a	n/a	-999	0	6	[9, 1, 8]	11	0	1	0	n/a	n/a	0.0	0	0	0	catFR2	0	R1041M
863.342	0.985	532640	PROB	0.951	n/a	n/a	n/a	-999	0	6	[3, 8, 6]	11	0	1	0	n/a	n/a	0.0	0	0	0	catFR2	0	R1041M
864.327	1.032	533133	PROB	0.998	n/a	n/a	n/a	-999	0	6	[9, 9, 4]	11	0	1	0	n/a	n/a	0.0	0	0	0	catFR2	0	R1041M
865.359	1.017	533649	PROB	0.989	n/a	n/a	n/a	-999	0	6	[9, 5, 1]	11	0	1	0	n/a	n/a	0.0	0	0	0	catFR2	0	R1041M
866.376	1.1	534157	PROB	1.068	n/a	n/a	n/a	-999	0	6	[3, 7, 6]	11	0	1	0	n/a	n/a	0.0	0	0	0	catFR2	0	R1041M
867.476	1.084	534707	PROB	1.056	n/a	n/a	n/a	-999	0	6	[9, 9, 4]	11	0	1	0	n/a	n/a	0.0	0	0	0	catFR2	0	R1041M
868.56	1.172	535249	PROB	1.172	n/a	n/a	n/a	-999	0	6	[2, 8, 6]	11	0	1	0	n/a	n/a	0.0	0	0	0	catFR2	0	R1041M
869.732	0.011	535835	STOP	n/a	n/a	n/a	n/a	-999	0	6	[-999, -999, -999]	n/a	0	1	0	n/a	n/a	0.0	0	0	0	catFR2	0	R1041M
869.743	1.051	535840	DISTRACT_END	n/a	n/a	n/a	n/a	-999	0	6	[0, 0, 0]	n/a	0	1	0	n/a	n/a	0.0	0	0	0	catFR2	0	R1041M
870.794	5.016	536366	REC_START	n/a	n/a	n/a	n/a	-999	0	6	[0, 0, 0]	n/a	0	1	0	n/a	n/a	0.0	0	0	0	catFR2	0	R1041M
875.81	5.193	538874	REC_WORD	5.016	n/a	BLUEBERRY	Fruit	12	1	6	[0, 0, 0]	n/a	0	1	0	n/a	n/a	0.0	0	0	0	catFR2	0	R1041M
881.003	3.898	541470	REC_WORD	10.209	n/a	BROCCOLI	n/a	-999	0	6	[0, 0, 0]	n/a	0	1	0	n/a	n/a	0.0	0	0	0	catFR2	0	R1041M
884.901	4.018	543419	REC_WORD	14.107	n/a	BATHROOM	Building	7	1	6	[0, 0, 0]	n/a	0	1	0	n/a	n/a	0.0	0	0	0	catFR2	0	R1041M
888.919	5.82	545427	REC_WORD	18.125	n/a	STEREO	Electronics	5	1	6	[0, 0, 0]	n/a	0	1	0	n/a	n/a	0.0	0	0	0	catFR2	0	R1041M
894.739	5.567	548337	REC_WORD	23.945	n/a	COMPUTER	Electronics	9	1	6	[0, 0, 0]	n/a	0	1	0	n/a	n/a	0.0	0	0	0	catFR2	0	R1041M
900.306	0.502	551120	REC_WORD	29.512	n/a	HEADPHONES	Electronics	10	1	6	[0, 0, 0]	n/a	0	1	0	n/a	n/a	0.0	0	0	0	catFR2	0	R1041M
900.808	12.244	551371	REC_END	n/a	n/a	n/a	n/a	-999	0	6	[0, 0, 0]	n/a	0	1	0	n/a	n/a	0.0	0	0	0	catFR2	0	R1041M
913.052	0.0	557493	TRIAL	n/a	n/a	n/a	n/a	-999	0	7	[0, 0, 0]	n/a	0	1	0	n/a	n/a	0.0	0	0	0	catFR2	0	R1041M
913.052	10.0	557493	COUNTDOWN_START	n/a	n/a	n/a	n/a	-999	0	7	[0, 0, 0]	n/a	0	1	0	n/a	n/a	0.0	0	0	0	catFR2	0	R1041M
923.48	0.007	562706	COUNTDOWN_END	n/a	n/a	n/a	n/a	-999	0	7	[0, 0, 0]	n/a	0	1	0	n/a	n/a	0.0	0	0	0	catFR2	0	R1041M
923.487	1.6	562710	ORIENT	n/a	n/a	n/a	n/a	-999	0	7	[0, 0, 0]	n/a	0	1	0	n/a	n/a	0.0	0	0	0	catFR2	0	R1041M
927.054	1.6	564493	WORD	n/a	wordpools/wordpool_categorized_EN.txt	DISHWASHER	Appliances	1	0	7	[0, 0, 0]	n/a	0	1	0	n/a	n/a	0.0	0	0	0	catFR2	0	R1041M
929.505	1.6	565718	WORD	n/a	wordpools/wordpool_categorized_EN.txt	OVEN	Appliances	2	0	7	[0, 0, 0]	n/a	0	1	0	n/a	n/a	0.0	0	0	0	catFR2	0	R1041M
931.679	4.6	566805	STIM_ON	n/a	n/a	n/a	n/a	-999	0	7	[0, 0, 0]	n/a	1	1	4600	LFG18	LFG25	3000.0	50	230	300	catFR2	0	R1041M
931.889	1.6	566910	WORD	n/a	wordpools/wordpool_categorized_EN.txt	HEN	FarmAnimals	3	0	7	[0, 0, 0]	n/a	1	1	4600	LFG18	LFG25	3000.0	50	230	300	catFR2	0	R1041M
934.406	1.6	568168	WORD	n/a	wordpools/wordpool_categorized_EN.txt	TURKEY	FarmAnimals	4	0	7	[0, 0, 0]	n/a	1	1	4600	LFG18	LFG25	3000.0	50	230	300	catFR2	0	R1041M
937.04	1.6	569485	WORD	n/a	wordpools/wordpool_categorized_EN.txt	OCTOPUS	OceanAnimals	5	0	7	[0, 0, 0]	n/a	0	1	0	n/a	n/a	0.0	0	0	0	catFR2	0	R1041M
939.657	1.6	570794	WORD	n/a	wordpools/wordpool_categorized_EN.txt	FISH	OceanAnimals	6	0	7	[0, 0, 0]	n/a	0	1	0	n/a	n/a	0.0	0	0	0	catFR2	0	R1041M
941.87	4.6	571900	STIM_ON	n/a	n/a	n/a	n/a	-999	0	7	[0, 0, 0]	n/a	1	1	4600	LFG18	LFG25	3000.0	50	230	300	catFR2	0	R1041M
942.074	1.6	572002	WORD	n/a	wordpools/wordpool_categorized_EN.txt	GOAT	FarmAnimals	7	0	7	[0, 0, 0]	n/a	1	1	4600	LFG18	LFG25	3000.0	50	230	300	catFR2	0	R1041M
944.625	1.6	573277	WORD	n/a	wordpools/wordpool_categorized_EN.txt	LAMB	FarmAnimals	8	0	7	[0, 0, 0]	n/a	1	1	4600	LFG18	LFG25	3000.0	50	230	300	catFR2	0	R1041M
947.226	1.6	574578	WORD	n/a	wordpools/wordpool_categorized_EN.txt	WASHER	Appliances	9	1	7	[0, 0, 0]	n/a	0	1	0	n/a	n/a	0.0	0	0	0	catFR2	0	R1041M
949.642	1.6	575786	WORD	n/a	wordpools/wordpool_categorized_EN.txt	MIXER	Appliances	10	0	7	[0, 0, 0]	n/a	0	1	0	n/a	n/a	0.0	0	0	0	catFR2	0	R1041M
951.964	4.6	576947	STIM_ON	n/a	n/a	n/a	n/a	-999	0	7	[0, 0, 0]	n/a	1	1	4600	LFG18	LFG25	3000.0	50	230	300	catFR2	0	R1041M
952.177	1.6	577053	WORD	n/a	wordpools/wordpool_categorized_EN.txt	OYSTER	OceanAnimals	11	1	7	[0, 0, 0]	n/a	1	1	4600	LFG18	LFG25	3000.0	50	230	300	catFR2	0	R1041M
954.676	1.6	578302	WORD	n/a	wordpools/wordpool_categorized_EN.txt	JELLYFISH	OceanAnimals	12	0	7	[0, 0, 0]	n/a	1	1	4600	LFG18	LFG25	3000.0	50	230	300	catFR2	0	R1041M
956.278	0.001	579103	DISTRACT_START	n/a	n/a	n/a	n/a	-999	0	7	[0, 0, 0]	n/a	0	1	0	n/a	n/a	0.0	0	0	0	catFR2	0	R1041M
956.279	0.015	579104	START	n/a	n/a	n/a	n/a	-999	0	7	[-999, -999, -999]	n/a	0	1	0	n/a	n/a	0.0	0	0	0	catFR2	0	R1041M
956.294	7.117	579111	PROB	7.086	n/a	n/a	n/a	-999	0	7	[6, 1, 4]	11	0	1	0	n/a	n/a	0.0	0	0	0	catFR2	0	R1041M
963.411	1.534	582669	PROB	1.513	n/a	n/a	n/a	-999	0	7	[4, 9, 6]	11	0	1	0	n/a	n/a	0.0	0	0	0	catFR2	0	R1041M
964.945	1.05	583436	PROB	1.027	n/a	n/a	n/a	-999	0	7	[9, 5, 9]	11	0	1	0	n/a	n/a	0.0	0	0	0	catFR2	0	R1041M
965.995	1.285	583961	PROB	1.25	n/a	n/a	n/a	-999	0	7	[9, 6, 6]	11	0	1	0	n/a	n/a	0.0	0	0	0	catFR2	0	R1041M
967.28	1.116	584604	PROB	1.092	n/a	n/a	n/a	-999	0	7	[7, 3, 4]	11	0	1	0	n/a	n/a	0.0	0	0	0	catFR2	0	R1041M
968.396	1.033	585162	PROB	1.0	n/a	n/a	n/a	-999	0	7	[3, 1, 7]	11	0	1	0	n/a	n/a	0.0	0	0	0	catFR2	0	R1041M
969.429	1.434	585678	PROB	1.407	n/a	n/a	n/a	-999	0	7	[9, 9, 8]	11	0	1	0	n/a	n/a	0.0	0	0	0	catFR2	0	R1041M
970.863	1.318	586395	PROB	1.286	n/a	n/a	n/a	-999	0	7	[3, 4, 2]	11	0	1	0	n/a	n/a	0.0	0	0	0	catFR2	0	R1041M
972.181	1.199	587054	PROB	1.175	n/a	n/a	n/a	-999	0	7	[2, 8, 3]	11	0	1	0	n/a	n/a	0.0	0	0	0	catFR2	0	R1041M
973.38	1.2	587653	PROB	1.168	n/a	n/a	n/a	-999	0	7	[1, 2, 5]	11	0	1	0	n/a	n/a	0.0	0	0	0	catFR2	0	R1041M
974.58	1.367	588253	PROB	1.336	n/a	n/a	n/a	-999	0	7	[1, 8, 3]	11	0	1	0	n/a	n/a	0.0	0	0	0	catFR2	0	R1041M
975.947	0.841	588937	PROB	0.841	n/a	n/a	n/a	-999	0	7	[8, 3, 2]	1	0	1	0	n/a	n/a	0.0	0	0	0	catFR2	0	R1041M
976.788	0.009	589357	STOP	n/a	n/a	n/a	n/a	-999	0	7	[-999, -999, -999]	n/a	0	1	0	n/a	n/a	0.0	0	0	0	catFR2	0	R1041M
976.797	1.218	589362	DISTRACT_END	n/a	n/a	n/a	n/a	-999	0	7	[0, 0, 0]	n/a	0	1	0	n/a	n/a	0.0	0	0	0	catFR2	0	R1041M
978.015	1.551	589971	REC_START	n/a	n/a	n/a	n/a	-999	0	7	[0, 0, 0]	n/a	0	1	0	n/a	n/a	0.0	0	0	0	catFR2	0	R1041M
979.566	4.345	590746	REC_WORD	1.551	n/a	OYSTER	OceanAnimals	11	1	7	[0, 0, 0]	n/a	0	1	0	n/a	n/a	0.0	0	0	0	catFR2	0	R1041M
983.911	10.574	592918	REC_WORD	5.896	n/a	DRYER	n/a	-999	0	7	[0, 0, 0]	n/a	0	1	0	n/a	n/a	0.0	0	0	0	catFR2	0	R1041M
994.485	10.243	598205	REC_WORD	16.47	n/a	WASHER	Appliances	9	1	7	[0, 0, 0]	n/a	0	1	0	n/a	n/a	0.0	0	0	0	catFR2	0	R1041M
1004.728	3.298	603326	REC_WORD	26.713	n/a	DISH	n/a	-999	0	7	[0, 0, 0]	n/a	0	1	0	n/a	n/a	0.0	0	0	0	catFR2	0	R1041M
1008.026	18.397	604975	REC_END	n/a	n/a	n/a	n/a	-999	0	7	[0, 0, 0]	n/a	0	1	0	n/a	n/a	0.0	0	0	0	catFR2	0	R1041M
1026.423	10.0	614172	COUNTDOWN_START	n/a	n/a	n/a	n/a	-999	0	8	[0, 0, 0]	n/a	0	1	0	n/a	n/a	0.0	0	0	0	catFR2	0	R1041M
1026.424	10.427	614173	TRIAL	n/a	n/a	n/a	n/a	-999	0	8	[0, 0, 0]	n/a	0	1	0	n/a	n/a	0.0	0	0	0	catFR2	0	R1041M
1036.851	0.008	619386	COUNTDOWN_END	n/a	n/a	n/a	n/a	-999	0	8	[0, 0, 0]	n/a	0	1	0	n/a	n/a	0.0	0	0	0	catFR2	0	R1041M
1036.859	1.6	619390	ORIENT	n/a	n/a	n/a	n/a	-999	0	8	[0, 0, 0]	n/a	0	1	0	n/a	n/a	0.0	0	0	0	catFR2	0	R1041M
1040.086	4.6	621003	STIM_ON	n/a	n/a	n/a	n/a	-999	0	8	[0, 0, 0]	n/a	1	1	4600	LFG18	LFG25	3000.0	50	230	300	catFR2	0	R1041M
1040.294	1.6	621107	WORD	n/a	wordpools/wordpool_categorized_EN.txt	MOUSSE	Desserts	1	0	8	[0, 0, 0]	n/a	1	1	4600	LFG18	LFG25	3000.0	50	230	300	catFR2	0	R1041M
1042.76	1.6	622340	WORD	n/a	wordpools/wordpool_categorized_EN.txt	COBBLER	Desserts	2	0	8	[0, 0, 0]	n/a	1	1	4600	LFG18	LFG25	3000.0	50	230	300	catFR2	0	R1041M
1045.212	1.6	623566	WORD	n/a	wordpools/wordpool_categorized_EN.txt	LEMONADE	Beverages	3	0	8	[0, 0, 0]	n/a	0	1	0	n/a	n/a	0.0	0	0	0	catFR2	0	R1041M
1047.711	1.6	624815	WORD	n/a	wordpools/wordpool_categorized_EN.txt	TEA	Beverages	4	0	8	[0, 0, 0]	n/a	0	1	0	n/a	n/a	0.0	0	0	0	catFR2	0	R1041M
1049.936	4.6	625927	STIM_ON	n/a	n/a	n/a	n/a	-999	0	8	[0, 0, 0]	n/a	1	1	4600	LFG18	LFG25	3000.0	50	230	300	catFR2	0	R1041M
1050.146	1.6	626032	WORD	n/a	wordpools/wordpool_categorized_EN.txt	ORGAN	Instruments	5	0	8	[0, 0, 0]	n/a	1	1	4600	LFG18	LFG25	3000.0	50	230	300	catFR2	0	R1041M
1052.662	1.6	627290	WORD	n/a	wordpools/wordpool_categorized_EN.txt	BANJO	Instruments	6	0	8	[0, 0, 0]	n/a	1	1	4600	LFG18	LFG25	3000.0	50	230	300	catFR2	0	R1041M
1055.247	1.6	628583	WORD	n/a	wordpools/wordpool_categorized_EN.txt	WINE	Beverages	7	0	8	[0, 0, 0]	n/a	0	1	0	n/a	n/a	0.0	0	0	0	catFR2	0	R1041M
1057.78	1.6	629849	WORD	n/a	wordpools/wordpool_categorized_EN.txt	WATER	Beverages	8	0	8	[0, 0, 0]	n/a	0	1	0	n/a	n/a	0.0	0	0	0	catFR2	0	R1041M
1060.129	4.6	631023	STIM_ON	n/a	n/a	n/a	n/a	-999	0	8	[0, 0, 0]	n/a	1	1	4600	LFG18	LFG25	3000.0	50	230	300	catFR2	0	R1041M
1060.331	1.6	631124	WORD	n/a	wordpools/wordpool_categorized_EN.txt	COOKIE	Desserts	9	0	8	[0, 0, 0]	n/a	1	1	4600	LFG18	LFG25	3000.0	50	230	300	catFR2	0	R1041M
1062.847	1.6	632382	WORD	n/a	wordpools/wordpool_categorized_EN.txt	PUDDING	Desserts	10	0	8	[0, 0, 0]	n/a	1	1	4600	LFG18	LFG25	3000.0	50	230	300	catFR2	0	R1041M
1065.431	1.6	633674	WORD	n/a	wordpools/wordpool_categorized_EN.txt	GUITAR	Instruments	11	1	8	[0, 0, 0]	n/a	0	1	0	n/a	n/a	0.0	0	0	0	catFR2	0	R1041M
1067.915	1.6	634916	WORD	n/a	wordpools/wordpool_categorized_EN.txt	FLUTE	Instruments	12	0	8	[0, 0, 0]	n/a	0	1	0	n/a	n/a	0.0	0	0	0	catFR2	0	R1041M
1069.532	0.001	635724	DISTRACT_START	n/a	n/a	n/a	n/a	-999	0	8	[0, 0, 0]	n/a	0	1	0	n/a	n/a	0.0	0	0	0	catFR2	0	R1041M
1069.533	0.016	635725	START	n/a	n/a	n/a	n/a	-999	0	8	[-999, -999, -999]	n/a	0	1	0	n/a	n/a	0.0	0	0	0	catFR2	0	R1041M
1069.549	4.735	635733	PROB	4.712	n/a	n/a	n/a	-999	0	8	[6, 7, 7]	11	0	1	0	n/a	n/a	0.0	0	0	0	catFR2	0	R1041M
1074.284	1.266	638100	PROB	1.232	n/a	n/a	n/a	-999	0	8	[9, 8, 9]	11	0	1	0	n/a	n/a	0.0	0	0	0	catFR2	0	R1041M
1075.55	1.017	638733	PROB	0.99	n/a	n/a	n/a	-999	0	8	[6, 4, 5]	11	0	1	0	n/a	n/a	0.0	0	0	0	catFR2	0	R1041M
1076.567	1.0	639242	PROB	0.965	n/a	n/a	n/a	-999	0	8	[3, 5, 4]	11	0	1	0	n/a	n/a	0.0	0	0	0	catFR2	0	R1041M
1077.567	1.017	639741	PROB	0.989	n/a	n/a	n/a	-999	0	8	[1, 5, 2]	11	0	1	0	n/a	n/a	0.0	0	0	0	catFR2	0	R1041M
1078.584	1.033	640250	PROB	1.004	n/a	n/a	n/a	-999	0	8	[1, 8, 5]	11	0	1	0	n/a	n/a	0.0	0	0	0	catFR2	0	R1041M
1079.617	1.167	640766	PROB	1.139	n/a	n/a	n/a	-999	0	8	[1, 1, 3]	11	0	1	0	n/a	n/a	0.0	0	0	0	catFR2	0	R1041M
1080.784	1.217	641350	PROB	1.196	n/a	n/a	n/a	-999	0	8	[9, 2, 1]	11	0	1	0	n/a	n/a	0.0	0	0	0	catFR2	0	R1041M
1082.001	1.135	641958	PROB	1.1	n/a	n/a	n/a	-999	0	8	[8, 9, 9]	11	0	1	0	n/a	n/a	0.0	0	0	0	catFR2	0	R1041M
1083.136	1.249	642526	PROB	1.228	n/a	n/a	n/a	-999	0	8	[6, 7, 1]	11	0	1	0	n/a	n/a	0.0	0	0	0	catFR2	0	R1041M
1084.385	1.217	643150	PROB	1.187	n/a	n/a	n/a	-999	0	8	[3, 7, 8]	11	0	1	0	n/a	n/a	0.0	0	0	0	catFR2	0	R1041M
1085.602	1.033	643759	PROB	1.01	n/a	n/a	n/a	-999	0	8	[9, 6, 7]	11	0	1	0	n/a	n/a	0.0	0	0	0	catFR2	0	R1041M
1086.635	1.101	644275	PROB	1.065	n/a	n/a	n/a	-999	0	8	[4, 8, 4]	11	0	1	0	n/a	n/a	0.0	0	0	0	catFR2	0	R1041M
1087.736	1.016	644825	PROB	0.98	n/a	n/a	n/a	-999	0	8	[1, 5, 8]	11	0	1	0	n/a	n/a	0.0	0	0	0	catFR2	0	R1041M
1088.752	1.068	645333	PROB	1.068	n/a	n/a	n/a	-999	0	8	[3, 5, 7]	11	0	1	0	n/a	n/a	0.0	0	0	0	catFR2	0	R1041M
1089.82	0.016	645867	STOP	n/a	n/a	n/a	n/a	-999	0	8	[-999, -999, -999]	n/a	0	1	0	n/a	n/a	0.0	0	0	0	catFR2	0	R1041M
1089.836	1.084	645875	DISTRACT_END	n/a	n/a	n/a	n/a	-999	0	8	[0, 0, 0]	n/a	0	1	0	n/a	n/a	0.0	0	0	0	catFR2	0	R1041M
1090.92	1.56	646417	REC_START	n/a	n/a	n/a	n/a	-999	0	8	[0, 0, 0]	n/a	0	1	0	n/a	n/a	0.0	0	0	0	catFR2	0	R1041M
1092.48	28.451	647197	REC_WORD	1.56	n/a	GUITAR	Instruments	11	1	8	[0, 0, 0]	n/a	0	1	0	n/a	n/a	0.0	0	0	0	catFR2	0	R1041M
1120.931	10.264	661421	REC_END	n/a	n/a	n/a	n/a	-999	0	8	[0, 0, 0]	n/a	0	1	0	n/a	n/a	0.0	0	0	0	catFR2	0	R1041M
1131.195	0.0	666553	TRIAL	n/a	n/a	n/a	n/a	-999	0	9	[0, 0, 0]	n/a	0	1	0	n/a	n/a	0.0	0	0	0	catFR2	0	R1041M
1131.195	10.0	666553	COUNTDOWN_START	n/a	n/a	n/a	n/a	-999	0	9	[0, 0, 0]	n/a	0	1	0	n/a	n/a	0.0	0	0	0	catFR2	0	R1041M
1141.623	0.006	671766	COUNTDOWN_END	n/a	n/a	n/a	n/a	-999	0	9	[0, 0, 0]	n/a	0	1	0	n/a	n/a	0.0	0	0	0	catFR2	0	R1041M
1141.629	1.6	671769	ORIENT	n/a	n/a	n/a	n/a	-999	0	9	[0, 0, 0]	n/a	0	1	0	n/a	n/a	0.0	0	0	0	catFR2	0	R1041M
1145.547	1.6	673728	WORD	n/a	wordpools/wordpool_categorized_EN.txt	VIOLET	Flowers	1	0	9	[0, 0, 0]	n/a	0	1	0	n/a	n/a	0.0	0	0	0	catFR2	0	R1041M
1147.997	1.6	674953	WORD	n/a	wordpools/wordpool_categorized_EN.txt	DAFFODIL	Flowers	2	0	9	[0, 0, 0]	n/a	0	1	0	n/a	n/a	0.0	0	0	0	catFR2	0	R1041M
1150.398	4.6	676153	STIM_ON	n/a	n/a	n/a	n/a	-999	0	9	[0, 0, 0]	n/a	1	1	4600	LFG18	LFG25	3000.0	50	230	300	catFR2	0	R1041M
1150.614	1.6	676261	WORD	n/a	wordpools/wordpool_categorized_EN.txt	PEELER	KitchenTools	3	0	9	[0, 0, 0]	n/a	1	1	4600	LFG18	LFG25	3000.0	50	230	300	catFR2	0	R1041M
1153.132	1.6	677520	WORD	n/a	wordpools/wordpool_categorized_EN.txt	SPOON	KitchenTools	4	0	9	[0, 0, 0]	n/a	1	1	4600	LFG18	LFG25	3000.0	50	230	300	catFR2	0	R1041M
1155.515	1.6	678711	WORD	n/a	wordpools/wordpool_categorized_EN.txt	BANANA	Fruit	5	0	9	[0, 0, 0]	n/a	0	1	0	n/a	n/a	0.0	0	0	0	catFR2	0	R1041M
1157.999	1.6	679953	WORD	n/a	wordpools/wordpool_categorized_EN.txt	ORANGE	Fruit	6	0	9	[0, 0, 0]	n/a	0	1	0	n/a	n/a	0.0	0	0	0	catFR2	0	R1041M
1160.399	4.6	681153	STIM_ON	n/a	n/a	n/a	n/a	-999	0	9	[0, 0, 0]	n/a	1	1	4600	LFG18	LFG25	3000.0	50	230	300	catFR2	0	R1041M
1160.616	1.6	681262	WORD	n/a	wordpools/wordpool_categorized_EN.txt	GRATER	KitchenTools	7	0	9	[0, 0, 0]	n/a	1	1	4600	LFG18	LFG25	3000.0	50	230	300	catFR2	0	R1041M
1163.168	1.6	682538	WORD	n/a	wordpools/wordpool_categorized_EN.txt	STRAINER	KitchenTools	8	0	9	[0, 0, 0]	n/a	1	1	4600	LFG18	LFG25	3000.0	50	230	300	catFR2	0	R1041M
1165.684	1.6	683795	WORD	n/a	wordpools/wordpool_categorized_EN.txt	DAISY	Flowers	9	0	9	[0, 0, 0]	n/a	0	1	0	n/a	n/a	0.0	0	0	0	catFR2	0	R1041M
1168.085	1.6	684996	WORD	n/a	wordpools/wordpool_categorized_EN.txt	CARNATION	Flowers	10	0	9	[0, 0, 0]	n/a	0	1	0	n/a	n/a	0.0	0	0	0	catFR2	0	R1041M
1170.333	4.6	686120	STIM_ON	n/a	n/a	n/a	n/a	-999	0	9	[0, 0, 0]	n/a	1	1	4600	LFG18	LFG25	3000.0	50	230	300	catFR2	0	R1041M
1170.552	1.6	686229	WORD	n/a	wordpools/wordpool_categorized_EN.txt	LEMON	Fruit	11	0	9	[0, 0, 0]	n/a	1	1	4600	LFG18	LFG25	3000.0	50	230	300	catFR2	0	R1041M
1173.052	1.6	687479	WORD	n/a	wordpools/wordpool_categorized_EN.txt	PLUM	Fruit	12	0	9	[0, 0, 0]	n/a	1	1	4600	LFG18	LFG25	3000.0	50	230	300	catFR2	0	R1041M
1174.669	0.001	688287	DISTRACT_START	n/a	n/a	n/a	n/a	-999	0	9	[0, 0, 0]	n/a	0	1	0	n/a	n/a	0.0	0	0	0	catFR2	0	R1041M
1174.67	0.016	688288	START	n/a	n/a	n/a	n/a	-999	0	9	[-999, -999, -999]	n/a	0	1	0	n/a	n/a	0.0	0	0	0	catFR2	0	R1041M
1174.686	5.967	688296	PROB	5.934	n/a	n/a	n/a	-999	0	9	[9, 8, 6]	11	0	1	0	n/a	n/a	0.0	0	0	0	catFR2	0	R1041M
1180.653	1.502	691279	PROB	1.472	n/a	n/a	n/a	-999	0	9	[4, 2, 8]	11	0	1	0	n/a	n/a	0.0	0	0	0	catFR2	0	R1041M
1182.155	0.983	692030	PROB	0.954	n/a	n/a	n/a	-999	0	9	[7, 1, 7]	11	0	1	0	n/a	n/a	0.0	0	0	0	catFR2	0	R1041M
1183.138	1.051	692521	PROB	1.027	n/a	n/a	n/a	-999	0	9	[1, 1, 1]	11	0	1	0	n/a	n/a	0.0	0	0	0	catFR2	0	R1041M
1184.189	1.249	693047	PROB	1.223	n/a	n/a	n/a	-999	0	9	[1, 5, 9]	11	0	1	0	n/a	n/a	0.0	0	0	0	catFR2	0	R1041M
1185.438	2.017	693671	PROB	1.99	n/a	n/a	n/a	-999	0	9	[2, 2, 4]	11	0	1	0	n/a	n/a	0.0	0	0	0	catFR2	0	R1041M
1187.455	1.267	694680	PROB	1.245	n/a	n/a	n/a	-999	0	9	[6, 4, 3]	11	0	1	0	n/a	n/a	0.0	0	0	0	catFR2	0	R1041M
1188.722	1.15	695313	PROB	1.122	n/a	n/a	n/a	-999	0	9	[5, 4, 9]	11	0	1	0	n/a	n/a	0.0	0	0	0	catFR2	0	R1041M
1189.872	1.1	695888	PROB	1.076	n/a	n/a	n/a	-999	0	9	[3, 3, 4]	11	0	1	0	n/a	n/a	0.0	0	0	0	catFR2	0	R1041M
1190.972	1.268	696438	PROB	1.241	n/a	n/a	n/a	-999	0	9	[8, 2, 1]	11	0	1	0	n/a	n/a	0.0	0	0	0	catFR2	0	R1041M
1192.24	1.533	697072	PROB	1.508	n/a	n/a	n/a	-999	0	9	[9, 1, 3]	11	0	1	0	n/a	n/a	0.0	0	0	0	catFR2	0	R1041M
1193.773	1.36	697838	PROB	1.36	n/a	n/a	n/a	-999	0	9	[9, 1, 3]	11	0	1	0	n/a	n/a	0.0	0	0	0	catFR2	0	R1041M
1195.133	0.008	698518	STOP	n/a	n/a	n/a	n/a	-999	0	9	[-999, -999, -999]	n/a	0	1	0	n/a	n/a	0.0	0	0	0	catFR2	0	R1041M
1195.141	1.068	698522	DISTRACT_END	n/a	n/a	n/a	n/a	-999	0	9	[0, 0, 0]	n/a	0	1	0	n/a	n/a	0.0	0	0	0	catFR2	0	R1041M
1196.209	1.731	699056	REC_START	n/a	n/a	n/a	n/a	-999	0	9	[0, 0, 0]	n/a	0	1	0	n/a	n/a	0.0	0	0	0	catFR2	0	R1041M
1197.94	26.386	699922	REC_WORD	1.731	n/a	LIME	n/a	-999	0	9	[0, 0, 0]	n/a	0	1	0	n/a	n/a	0.0	0	0	0	catFR2	0	R1041M
1224.326	1.894	713113	REC_WORD	28.117	n/a	OYSTER	n/a	-999	0	9	[0, 0, 0]	n/a	0	1	0	n/a	n/a	0.0	0	0	0	catFR2	0	R1041M
1226.22	13.178	714060	REC_END	n/a	n/a	n/a	n/a	-999	0	9	[0, 0, 0]	n/a	0	1	0	n/a	n/a	0.0	0	0	0	catFR2	0	R1041M
1239.398	0.0	720649	TRIAL	n/a	n/a	n/a	n/a	-999	0	10	[0, 0, 0]	n/a	0	0	0	n/a	n/a	0.0	0	0	0	catFR2	0	R1041M
1239.398	10.0	720649	COUNTDOWN_START	n/a	n/a	n/a	n/a	-999	0	10	[0, 0, 0]	n/a	0	0	0	n/a	n/a	0.0	0	0	0	catFR2	0	R1041M
1249.826	0.008	725862	COUNTDOWN_END	n/a	n/a	n/a	n/a	-999	0	10	[0, 0, 0]	n/a	0	0	0	n/a	n/a	0.0	0	0	0	catFR2	0	R1041M
1249.834	1.6	725866	ORIENT	n/a	n/a	n/a	n/a	-999	0	10	[0, 0, 0]	n/a	0	0	0	n/a	n/a	0.0	0	0	0	catFR2	0	R1041M
1253.269	1.6	727583	WORD	n/a	wordpools/wordpool_categorized_EN.txt	DRYER	Appliances	1	1	10	[0, 0, 0]	n/a	0	0	0	n/a	n/a	0.0	0	0	0	catFR2	0	R1041M
1255.735	1.6	728816	WORD	n/a	wordpools/wordpool_categorized_EN.txt	STOVE	Appliances	2	0	10	[0, 0, 0]	n/a	0	0	0	n/a	n/a	0.0	0	0	0	catFR2	0	R1041M
1258.352	1.6	730125	WORD	n/a	wordpools/wordpool_categorized_EN.txt	BARBIE	Toys	3	0	10	[0, 0, 0]	n/a	0	0	0	n/a	n/a	0.0	0	0	0	catFR2	0	R1041M
1260.786	1.6	731341	WORD	n/a	wordpools/wordpool_categorized_EN.txt	SLINKY	Toys	4	0	10	[0, 0, 0]	n/a	0	0	0	n/a	n/a	0.0	0	0	0	catFR2	0	R1041M
1263.221	1.6	732559	WORD	n/a	wordpools/wordpool_categorized_EN.txt	SODA	Beverages	5	0	10	[0, 0, 0]	n/a	0	0	0	n/a	n/a	0.0	0	0	0	catFR2	0	R1041M
1265.737	1.6	733817	WORD	n/a	wordpools/wordpool_categorized_EN.txt	CIDER	Beverages	6	0	10	[0, 0, 0]	n/a	0	0	0	n/a	n/a	0.0	0	0	0	catFR2	0	R1041M
1268.305	1.6	735101	WORD	n/a	wordpools/wordpool_categorized_EN.txt	TOASTER	Appliances	7	1	10	[0, 0, 0]	n/a	0	0	0	n/a	n/a	0.0	0	0	0	catFR2	0	R1041M
1270.721	1.6	736308	WORD	n/a	wordpools/wordpool_categorized_EN.txt	IRON	Appliances	8	1	10	[0, 0, 0]	n/a	0	0	0	n/a	n/a	0.0	0	0	0	catFR2	0	R1041M
1273.189	1.6	737542	WORD	n/a	wordpools/wordpool_categorized_EN.txt	COLA	Beverages	9	0	10	[0, 0, 0]	n/a	0	0	0	n/a	n/a	0.0	0	0	0	catFR2	0	R1041M
1275.705	1.6	738800	WORD	n/a	wordpools/wordpool_categorized_EN.txt	MILK	Beverages	10	0	10	[0, 0, 0]	n/a	0	0	0	n/a	n/a	0.0	0	0	0	catFR2	0	R1041M
1278.173	1.6	740034	WORD	n/a	wordpools/wordpool_categorized_EN.txt	BALL	Toys	11	0	10	[0, 0, 0]	n/a	0	0	0	n/a	n/a	0.0	0	0	0	catFR2	0	R1041M
1280.64	1.6	741267	WORD	n/a	wordpools/wordpool_categorized_EN.txt	MARBLES	Toys	12	0	10	[0, 0, 0]	n/a	0	0	0	n/a	n/a	0.0	0	0	0	catFR2	0	R1041M
1282.258	0.001	742076	DISTRACT_START	n/a	n/a	n/a	n/a	-999	0	10	[0, 0, 0]	n/a	0	0	0	n/a	n/a	0.0	0	0	0	catFR2	0	R1041M
1282.259	0.015	742077	START	n/a	n/a	n/a	n/a	-999	0	10	[-999, -999, -999]	n/a	0	0	0	n/a	n/a	0.0	0	0	0	catFR2	0	R1041M
1282.274	5.3	742084	PROB	5.274	n/a	n/a	n/a	-999	0	10	[7, 2, 8]	11	0	0	0	n/a	n/a	0.0	0	0	0	catFR2	0	R1041M
1287.574	1.2	744734	PROB	1.166	n/a	n/a	n/a	-999	0	10	[2, 3, 3]	11	0	0	0	n/a	n/a	0.0	0	0	0	catFR2	0	R1041M
1288.774	1.084	745334	PROB	1.054	n/a	n/a	n/a	-999	0	10	[9, 5, 9]	11	0	0	0	n/a	n/a	0.0	0	0	0	catFR2	0	R1041M
1289.858	0.95	745876	PROB	0.93	n/a	n/a	n/a	-999	0	10	[5, 6, 2]	11	0	0	0	n/a	n/a	0.0	0	0	0	catFR2	0	R1041M
1290.808	0.984	746351	PROB	0.956	n/a	n/a	n/a	-999	0	10	[6, 1, 4]	11	0	0	0	n/a	n/a	0.0	0	0	0	catFR2	0	R1041M
1291.792	1.183	746843	PROB	1.148	n/a	n/a	n/a	-999	0	10	[6, 7, 9]	11	0	0	0	n/a	n/a	0.0	0	0	0	catFR2	0	R1041M
1292.975	1.135	747434	PROB	1.101	n/a	n/a	n/a	-999	0	10	[5, 8, 2]	11	0	0	0	n/a	n/a	0.0	0	0	0	catFR2	0	R1041M
1294.11	1.033	748002	PROB	0.999	n/a	n/a	n/a	-999	0	10	[7, 9, 4]	11	0	0	0	n/a	n/a	0.0	0	0	0	catFR2	0	R1041M
1295.143	1.25	748518	PROB	1.229	n/a	n/a	n/a	-999	0	10	[6, 6, 3]	11	0	0	0	n/a	n/a	0.0	0	0	0	catFR2	0	R1041M
1296.393	1.083	749143	PROB	1.051	n/a	n/a	n/a	-999	0	10	[4, 5, 9]	11	0	0	0	n/a	n/a	0.0	0	0	0	catFR2	0	R1041M
1297.476	1.05	749685	PROB	1.016	n/a	n/a	n/a	-999	0	10	[4, 5, 7]	11	0	0	0	n/a	n/a	0.0	0	0	0	catFR2	0	R1041M
1298.526	1.084	750209	PROB	1.062	n/a	n/a	n/a	-999	0	10	[2, 8, 4]	11	0	0	0	n/a	n/a	0.0	0	0	0	catFR2	0	R1041M
1299.61	1.1	750751	PROB	1.066	n/a	n/a	n/a	-999	0	10	[5, 2, 2]	11	0	0	0	n/a	n/a	0.0	0	0	0	catFR2	0	R1041M
1300.71	1.017	751301	PROB	0.982	n/a	n/a	n/a	-999	0	10	[2, 8, 6]	11	0	0	0	n/a	n/a	0.0	0	0	0	catFR2	0	R1041M
1301.727	1.053	751810	PROB	1.053	n/a	n/a	n/a	-999	0	10	[3, 8, 7]	11	0	0	0	n/a	n/a	0.0	0	0	0	catFR2	0	R1041M
1302.78	0.014	752336	STOP	n/a	n/a	n/a	n/a	-999	0	10	[-999, -999, -999]	n/a	0	0	0	n/a	n/a	0.0	0	0	0	catFR2	0	R1041M
1302.794	1.217	752343	DISTRACT_END	n/a	n/a	n/a	n/a	-999	0	10	[0, 0, 0]	n/a	0	0	0	n/a	n/a	0.0	0	0	0	catFR2	0	R1041M
1304.011	2.523	752952	REC_START	n/a	n/a	n/a	n/a	-999	0	10	[0, 0, 0]	n/a	0	0	0	n/a	n/a	0.0	0	0	0	catFR2	0	R1041M
1306.534	10.551	754213	REC_WORD	2.523	n/a	TOASTER	Appliances	7	1	10	[0, 0, 0]	n/a	0	0	0	n/a	n/a	0.0	0	0	0	catFR2	0	R1041M
1317.085	10.242	759488	REC_WORD	13.074	n/a	DRYER	Appliances	1	1	10	[0, 0, 0]	n/a	0	0	0	n/a	n/a	0.0	0	0	0	catFR2	0	R1041M
1327.327	6.699	764608	REC_WORD	23.316	n/a	IRON	Appliances	8	1	10	[0, 0, 0]	n/a	0	0	0	n/a	n/a	0.0	0	0	0	catFR2	0	R1041M
1334.026	8.676	767958	REC_END	n/a	n/a	n/a	n/a	-999	0	10	[0, 0, 0]	n/a	0	0	0	n/a	n/a	0.0	0	0	0	catFR2	0	R1041M
1342.702	0.0	772295	TRIAL	n/a	n/a	n/a	n/a	-999	0	11	[0, 0, 0]	n/a	0	1	0	n/a	n/a	0.0	0	0	0	catFR2	0	R1041M
1342.702	10.0	772295	COUNTDOWN_START	n/a	n/a	n/a	n/a	-999	0	11	[0, 0, 0]	n/a	0	1	0	n/a	n/a	0.0	0	0	0	catFR2	0	R1041M
1353.13	0.008	777509	COUNTDOWN_END	n/a	n/a	n/a	n/a	-999	0	11	[0, 0, 0]	n/a	0	1	0	n/a	n/a	0.0	0	0	0	catFR2	0	R1041M
1353.138	1.6	777513	ORIENT	n/a	n/a	n/a	n/a	-999	0	11	[0, 0, 0]	n/a	0	1	0	n/a	n/a	0.0	0	0	0	catFR2	0	R1041M
1356.499	4.6	779193	STIM_ON	n/a	n/a	n/a	n/a	-999	0	11	[0, 0, 0]	n/a	1	1	4600	LFG18	LFG25	3000.0	50	230	300	catFR2	0	R1041M
1356.704	1.6	779295	WORD	n/a	wordpools/wordpool_categorized_EN.txt	ORCHID	Flowers	1	0	11	[0, 0, 0]	n/a	1	1	4600	LFG18	LFG25	3000.0	50	230	300	catFR2	0	R1041M
1359.172	1.6	780529	WORD	n/a	wordpools/wordpool_categorized_EN.txt	MARIGOLD	Flowers	2	0	11	[0, 0, 0]	n/a	1	1	4600	LFG18	LFG25	3000.0	50	230	300	catFR2	0	R1041M
1361.739	1.6	781813	WORD	n/a	wordpools/wordpool_categorized_EN.txt	SCANNER	Electronics	3	0	11	[0, 0, 0]	n/a	0	1	0	n/a	n/a	0.0	0	0	0	catFR2	0	R1041M
1364.157	1.6	783022	WORD	n/a	wordpools/wordpool_categorized_EN.txt	CALCULATOR	Electronics	4	0	11	[0, 0, 0]	n/a	0	1	0	n/a	n/a	0.0	0	0	0	catFR2	0	R1041M
1366.447	4.6	784166	STIM_ON	n/a	n/a	n/a	n/a	-999	0	11	[0, 0, 0]	n/a	1	1	4600	LFG18	LFG25	3000.0	50	230	300	catFR2	0	R1041M
1366.656	1.6	784271	WORD	n/a	wordpools/wordpool_categorized_EN.txt	VACUUM	Appliances	5	0	11	[0, 0, 0]	n/a	1	1	4600	LFG18	LFG25	3000.0	50	230	300	catFR2	0	R1041M
1369.208	1.6	785547	WORD	n/a	wordpools/wordpool_categorized_EN.txt	FREEZER	Appliances	6	0	11	[0, 0, 0]	n/a	1	1	4600	LFG18	LFG25	3000.0	50	230	300	catFR2	0	R1041M
1371.624	1.6	786755	WORD	n/a	wordpools/wordpool_categorized_EN.txt	PETUNIA	Flowers	7	0	11	[0, 0, 0]	n/a	0	1	0	n/a	n/a	0.0	0	0	0	catFR2	0	R1041M
1374.041	1.6	787963	WORD	n/a	wordpools/wordpool_categorized_EN.txt	LILY	Flowers	8	0	11	[0, 0, 0]	n/a	0	1	0	n/a	n/a	0.0	0	0	0	catFR2	0	R1041M
1376.279	4.6	789082	STIM_ON	n/a	n/a	n/a	n/a	-999	0	11	[0, 0, 0]	n/a	1	1	4600	LFG18	LFG25	3000.0	50	230	300	catFR2	0	R1041M
1376.491	1.6	789188	WORD	n/a	wordpools/wordpool_categorized_EN.txt	BLENDER	Appliances	9	0	11	[0, 0, 0]	n/a	1	1	4600	LFG18	LFG25	3000.0	50	230	300	catFR2	0	R1041M
1378.925	1.6	790405	WORD	n/a	wordpools/wordpool_categorized_EN.txt	REFRIGERATOR	Appliances	10	0	11	[0, 0, 0]	n/a	1	1	4600	LFG18	LFG25	3000.0	50	230	300	catFR2	0	R1041M
1381.327	1.6	791606	WORD	n/a	wordpools/wordpool_categorized_EN.txt	TELEVISION	Electronics	11	1	11	[0, 0, 0]	n/a	0	1	0	n/a	n/a	0.0	0	0	0	catFR2	0	R1041M
1383.91	1.6	792897	WORD	n/a	wordpools/wordpool_categorized_EN.txt	PRINTER	Electronics	12	0	11	[0, 0, 0]	n/a	0	1	0	n/a	n/a	0.0	0	0	0	catFR2	0	R1041M
1385.527	0.001	793705	DISTRACT_START	n/a	n/a	n/a	n/a	-999	0	11	[0, 0, 0]	n/a	0	1	0	n/a	n/a	0.0	0	0	0	catFR2	0	R1041M
1385.528	0.015	793706	START	n/a	n/a	n/a	n/a	-999	0	11	[-999, -999, -999]	n/a	0	1	0	n/a	n/a	0.0	0	0	0	catFR2	0	R1041M
1385.543	5.285	793713	PROB	5.261	n/a	n/a	n/a	-999	0	11	[7, 1, 6]	11	0	1	0	n/a	n/a	0.0	0	0	0	catFR2	0	R1041M
1390.828	1.301	796356	PROB	1.273	n/a	n/a	n/a	-999	0	11	[7, 7, 5]	11	0	1	0	n/a	n/a	0.0	0	0	0	catFR2	0	R1041M
1392.129	0.983	797006	PROB	0.947	n/a	n/a	n/a	-999	0	11	[9, 8, 6]	11	0	1	0	n/a	n/a	0.0	0	0	0	catFR2	0	R1041M
1393.112	1.167	797498	PROB	1.141	n/a	n/a	n/a	-999	0	11	[8, 6, 8]	11	0	1	0	n/a	n/a	0.0	0	0	0	catFR2	0	R1041M
1394.279	1.0	798081	PROB	0.974	n/a	n/a	n/a	-999	0	11	[7, 2, 3]	11	0	1	0	n/a	n/a	0.0	0	0	0	catFR2	0	R1041M
1395.279	1.4	798581	PROB	1.365	n/a	n/a	n/a	-999	0	11	[7, 1, 2]	11	0	1	0	n/a	n/a	0.0	0	0	0	catFR2	0	R1041M
1396.679	1.117	799281	PROB	1.085	n/a	n/a	n/a	-999	0	11	[6, 4, 1]	11	0	1	0	n/a	n/a	0.0	0	0	0	catFR2	0	R1041M
1397.796	1.817	799839	PROB	1.784	n/a	n/a	n/a	-999	0	11	[5, 8, 4]	11	0	1	0	n/a	n/a	0.0	0	0	0	catFR2	0	R1041M
1399.613	1.116	800748	PROB	1.087	n/a	n/a	n/a	-999	0	11	[7, 8, 3]	11	0	1	0	n/a	n/a	0.0	0	0	0	catFR2	0	R1041M
1400.729	1.117	801306	PROB	1.091	n/a	n/a	n/a	-999	0	11	[8, 9, 9]	11	0	1	0	n/a	n/a	0.0	0	0	0	catFR2	0	R1041M
1401.846	1.268	801864	PROB	1.239	n/a	n/a	n/a	-999	0	11	[2, 3, 1]	11	0	1	0	n/a	n/a	0.0	0	0	0	catFR2	0	R1041M
1403.114	1.2	802498	PROB	1.179	n/a	n/a	n/a	-999	0	11	[2, 4, 5]	11	0	1	0	n/a	n/a	0.0	0	0	0	catFR2	0	R1041M
1404.314	1.362	803098	PROB	1.362	n/a	n/a	n/a	-999	0	11	[8, 8, 5]	11	0	1	0	n/a	n/a	0.0	0	0	0	catFR2	0	R1041M
1405.676	0.004	803779	STOP	n/a	n/a	n/a	n/a	-999	0	11	[-999, -999, -999]	n/a	0	1	0	n/a	n/a	0.0	0	0	0	catFR2	0	R1041M
1405.68	1.051	803781	DISTRACT_END	n/a	n/a	n/a	n/a	-999	0	11	[0, 0, 0]	n/a	0	1	0	n/a	n/a	0.0	0	0	0	catFR2	0	R1041M
1406.731	1.645	804306	REC_START	n/a	n/a	n/a	n/a	-999	0	11	[0, 0, 0]	n/a	0	1	0	n/a	n/a	0.0	0	0	0	catFR2	0	R1041M
1408.376	4.719	805129	REC_WORD	1.645	n/a	PAINTER	n/a	-999	0	11	[0, 0, 0]	n/a	0	1	0	n/a	n/a	0.0	0	0	0	catFR2	0	R1041M
1413.095	12.843	807488	REC_WORD	6.364	n/a	TELEVISION	Electronics	11	1	11	[0, 0, 0]	n/a	0	1	0	n/a	n/a	0.0	0	0	0	catFR2	0	R1041M
1425.938	5.041	813909	REC_WORD	19.207	n/a	COMPUTER	n/a	-999	0	11	[0, 0, 0]	n/a	0	1	0	n/a	n/a	0.0	0	0	0	catFR2	0	R1041M
1430.979	5.767	816429	REC_WORD	24.248	n/a	BATHROOM	n/a	-999	0	11	[0, 0, 0]	n/a	0	1	0	n/a	n/a	0.0	0	0	0	catFR2	0	R1041M
1436.746	22.078	819312	REC_END	n/a	n/a	n/a	n/a	-999	0	11	[0, 0, 0]	n/a	0	1	0	n/a	n/a	0.0	0	0	0	catFR2	0	R1041M
1458.824	0.0	830350	TRIAL	n/a	n/a	n/a	n/a	-999	0	12	[0, 0, 0]	n/a	0	1	0	n/a	n/a	0.0	0	0	0	catFR2	0	R1041M
1458.824	10.0	830350	COUNTDOWN_START	n/a	n/a	n/a	n/a	-999	0	12	[0, 0, 0]	n/a	0	1	0	n/a	n/a	0.0	0	0	0	catFR2	0	R1041M
1469.252	0.008	835564	COUNTDOWN_END	n/a	n/a	n/a	n/a	-999	0	12	[0, 0, 0]	n/a	0	1	0	n/a	n/a	0.0	0	0	0	catFR2	0	R1041M
1469.26	1.6	835568	ORIENT	n/a	n/a	n/a	n/a	-999	0	12	[0, 0, 0]	n/a	0	1	0	n/a	n/a	0.0	0	0	0	catFR2	0	R1041M
1473.077	1.6	837476	WORD	n/a	wordpools/wordpool_categorized_EN.txt	SPIDER	Insects	1	0	12	[0, 0, 0]	n/a	0	1	0	n/a	n/a	0.0	0	0	0	catFR2	0	R1041M
1475.477	1.6	838676	WORD	n/a	wordpools/wordpool_categorized_EN.txt	MOTH	Insects	2	0	12	[0, 0, 0]	n/a	0	1	0	n/a	n/a	0.0	0	0	0	catFR2	0	R1041M
1477.721	4.6	839798	STIM_ON	n/a	n/a	n/a	n/a	-999	0	12	[0, 0, 0]	n/a	1	1	4600	LFG18	LFG25	3000.0	50	230	300	catFR2	0	R1041M
1477.928	1.6	839901	WORD	n/a	wordpools/wordpool_categorized_EN.txt	PLANKTON	OceanAnimals	3	0	12	[0, 0, 0]	n/a	1	1	4600	LFG18	LFG25	3000.0	50	230	300	catFR2	0	R1041M
1480.395	1.6	841134	WORD	n/a	wordpools/wordpool_categorized_EN.txt	DOLPHIN	OceanAnimals	4	0	12	[0, 0, 0]	n/a	1	1	4600	LFG18	LFG25	3000.0	50	230	300	catFR2	0	R1041M
1482.895	1.6	842384	WORD	n/a	wordpools/wordpool_categorized_EN.txt	BOAT	Vehicles	5	0	12	[0, 0, 0]	n/a	0	1	0	n/a	n/a	0.0	0	0	0	catFR2	0	R1041M
1485.346	1.6	843610	WORD	n/a	wordpools/wordpool_categorized_EN.txt	MOPED	Vehicles	6	0	12	[0, 0, 0]	n/a	0	1	0	n/a	n/a	0.0	0	0	0	catFR2	0	R1041M
1487.598	4.6	844736	STIM_ON	n/a	n/a	n/a	n/a	-999	0	12	[0, 0, 0]	n/a	1	1	4600	LFG18	LFG25	3000.0	50	230	300	catFR2	0	R1041M
1487.813	1.6	844843	WORD	n/a	wordpools/wordpool_categorized_EN.txt	MOSQUITO	Insects	7	0	12	[0, 0, 0]	n/a	1	1	4600	LFG18	LFG25	3000.0	50	230	300	catFR2	0	R1041M
1490.413	1.6	846143	WORD	n/a	wordpools/wordpool_categorized_EN.txt	GNAT	Insects	8	0	12	[0, 0, 0]	n/a	1	1	4600	LFG18	LFG25	3000.0	50	230	300	catFR2	0	R1041M
1492.814	1.6	847343	WORD	n/a	wordpools/wordpool_categorized_EN.txt	PLANE	Vehicles	9	0	12	[0, 0, 0]	n/a	0	1	0	n/a	n/a	0.0	0	0	0	catFR2	0	R1041M
1495.398	1.6	848635	WORD	n/a	wordpools/wordpool_categorized_EN.txt	CAR	Vehicles	10	0	12	[0, 0, 0]	n/a	0	1	0	n/a	n/a	0.0	0	0	0	catFR2	0	R1041M
1497.631	4.6	849752	STIM_ON	n/a	n/a	n/a	n/a	-999	0	12	[0, 0, 0]	n/a	1	1	4600	LFG18	LFG25	3000.0	50	230	300	catFR2	0	R1041M
1497.848	1.6	849860	WORD	n/a	wordpools/wordpool_categorized_EN.txt	CRAB	OceanAnimals	11	1	12	[0, 0, 0]	n/a	1	1	4600	LFG18	LFG25	3000.0	50	230	300	catFR2	0	R1041M
1500.283	1.6	851077	WORD	n/a	wordpools/wordpool_categorized_EN.txt	WHALE	OceanAnimals	12	0	12	[0, 0, 0]	n/a	1	1	4600	LFG18	LFG25	3000.0	50	230	300	catFR2	0	R1041M
1501.899	0.001	851885	DISTRACT_START	n/a	n/a	n/a	n/a	-999	0	12	[0, 0, 0]	n/a	0	1	0	n/a	n/a	0.0	0	0	0	catFR2	0	R1041M
1501.9	0.016	851886	START	n/a	n/a	n/a	n/a	-999	0	12	[-999, -999, -999]	n/a	0	1	0	n/a	n/a	0.0	0	0	0	catFR2	0	R1041M
1501.916	5.884	851894	PROB	5.848	n/a	n/a	n/a	-999	0	12	[1, 6, 1]	11	0	1	0	n/a	n/a	0.0	0	0	0	catFR2	0	R1041M
1507.8	1.25	854836	PROB	1.228	n/a	n/a	n/a	-999	0	12	[8, 3, 9]	11	0	1	0	n/a	n/a	0.0	0	0	0	catFR2	0	R1041M
1509.05	1.152	855460	PROB	1.123	n/a	n/a	n/a	-999	0	12	[5, 9, 9]	11	0	1	0	n/a	n/a	0.0	0	0	0	catFR2	0	R1041M
1510.202	0.983	856036	PROB	0.963	n/a	n/a	n/a	-999	0	12	[6, 3, 5]	11	0	1	0	n/a	n/a	0.0	0	0	0	catFR2	0	R1041M
1511.185	1.067	856528	PROB	1.044	n/a	n/a	n/a	-999	0	12	[5, 2, 4]	11	0	1	0	n/a	n/a	0.0	0	0	0	catFR2	0	R1041M
1512.252	1.266	857061	PROB	1.24	n/a	n/a	n/a	-999	0	12	[5, 5, 6]	11	0	1	0	n/a	n/a	0.0	0	0	0	catFR2	0	R1041M
1513.518	1.067	857694	PROB	1.038	n/a	n/a	n/a	-999	0	12	[2, 3, 6]	11	0	1	0	n/a	n/a	0.0	0	0	0	catFR2	0	R1041M
1514.585	1.1	858228	PROB	1.075	n/a	n/a	n/a	-999	0	12	[9, 4, 8]	11	0	1	0	n/a	n/a	0.0	0	0	0	catFR2	0	R1041M
1515.685	1.134	858778	PROB	1.103	n/a	n/a	n/a	-999	0	12	[4, 6, 6]	11	0	1	0	n/a	n/a	0.0	0	0	0	catFR2	0	R1041M
1516.819	1.033	859345	PROB	1.001	n/a	n/a	n/a	-999	0	12	[8, 8, 9]	11	0	1	0	n/a	n/a	0.0	0	0	0	catFR2	0	R1041M
1517.852	1.301	859861	PROB	1.281	n/a	n/a	n/a	-999	0	12	[3, 2, 7]	11	0	1	0	n/a	n/a	0.0	0	0	0	catFR2	0	R1041M
1519.153	1.084	860511	PROB	1.052	n/a	n/a	n/a	-999	0	12	[4, 3, 3]	11	0	1	0	n/a	n/a	0.0	0	0	0	catFR2	0	R1041M
1520.237	1.017	861053	PROB	0.992	n/a	n/a	n/a	-999	0	12	[6, 7, 3]	11	0	1	0	n/a	n/a	0.0	0	0	0	catFR2	0	R1041M
1521.254	1.071	861562	PROB	1.071	n/a	n/a	n/a	-999	0	12	[9, 5, 8]	11	0	1	0	n/a	n/a	0.0	0	0	0	catFR2	0	R1041M
1522.325	0.012	862097	STOP	n/a	n/a	n/a	n/a	-999	0	12	[-999, -999, -999]	n/a	0	1	0	n/a	n/a	0.0	0	0	0	catFR2	0	R1041M
1522.337	1.151	862103	DISTRACT_END	n/a	n/a	n/a	n/a	-999	0	12	[0, 0, 0]	n/a	0	1	0	n/a	n/a	0.0	0	0	0	catFR2	0	R1041M
1523.488	7.537	862679	REC_START	n/a	n/a	n/a	n/a	-999	0	12	[0, 0, 0]	n/a	0	1	0	n/a	n/a	0.0	0	0	0	catFR2	0	R1041M
1531.025	22.474	866447	REC_WORD	7.537	n/a	CRAB	OceanAnimals	11	1	12	[0, 0, 0]	n/a	0	1	0	n/a	n/a	0.0	0	0	0	catFR2	0	R1041M
1553.499	8.629	877683	REC_END	n/a	n/a	n/a	n/a	-999	0	12	[0, 0, 0]	n/a	0	1	0	n/a	n/a	0.0	0	0	0	catFR2	0	R1041M
1562.128	10.0	881997	COUNTDOWN_START	n/a	n/a	n/a	n/a	-999	0	13	[0, 0, 0]	n/a	0	0	0	n/a	n/a	0.0	0	0	0	catFR2	0	R1041M
1562.129	10.427	881997	TRIAL	n/a	n/a	n/a	n/a	-999	0	13	[0, 0, 0]	n/a	0	0	0	n/a	n/a	0.0	0	0	0	catFR2	0	R1041M
1572.556	0.007	887210	COUNTDOWN_END	n/a	n/a	n/a	n/a	-999	0	13	[0, 0, 0]	n/a	0	0	0	n/a	n/a	0.0	0	0	0	catFR2	0	R1041M
1572.563	1.6	887214	ORIENT	n/a	n/a	n/a	n/a	-999	0	13	[0, 0, 0]	n/a	0	0	0	n/a	n/a	0.0	0	0	0	catFR2	0	R1041M
1576.248	1.6	889056	WORD	n/a	wordpools/wordpool_categorized_EN.txt	ERASER	OfficeSupplies	1	1	13	[0, 0, 0]	n/a	0	0	0	n/a	n/a	0.0	0	0	0	catFR2	0	R1041M
1578.864	1.6	890364	WORD	n/a	wordpools/wordpool_categorized_EN.txt	PAPER	OfficeSupplies	2	0	13	[0, 0, 0]	n/a	0	0	0	n/a	n/a	0.0	0	0	0	catFR2	0	R1041M
1581.448	1.6	891656	WORD	n/a	wordpools/wordpool_categorized_EN.txt	HALLWAY	Building	3	0	13	[0, 0, 0]	n/a	0	0	0	n/a	n/a	0.0	0	0	0	catFR2	0	R1041M
1583.965	1.6	892914	WORD	n/a	wordpools/wordpool_categorized_EN.txt	WALL	Building	4	0	13	[0, 0, 0]	n/a	0	0	0	n/a	n/a	0.0	0	0	0	catFR2	0	R1041M
1586.465	1.6	894164	WORD	n/a	wordpools/wordpool_categorized_EN.txt	HUMIDITY	Weather	5	0	13	[0, 0, 0]	n/a	0	0	0	n/a	n/a	0.0	0	0	0	catFR2	0	R1041M
1588.983	1.6	895423	WORD	n/a	wordpools/wordpool_categorized_EN.txt	HURRICANE	Weather	6	0	13	[0, 0, 0]	n/a	0	0	0	n/a	n/a	0.0	0	0	0	catFR2	0	R1041M
1591.433	1.6	896648	WORD	n/a	wordpools/wordpool_categorized_EN.txt	DOOR	Building	7	0	13	[0, 0, 0]	n/a	0	0	0	n/a	n/a	0.0	0	0	0	catFR2	0	R1041M
1593.917	1.6	897890	WORD	n/a	wordpools/wordpool_categorized_EN.txt	WINDOW	Building	8	0	13	[0, 0, 0]	n/a	0	0	0	n/a	n/a	0.0	0	0	0	catFR2	0	R1041M
1596.517	1.6	899189	WORD	n/a	wordpools/wordpool_categorized_EN.txt	FOLDER	OfficeSupplies	9	0	13	[0, 0, 0]	n/a	0	0	0	n/a	n/a	0.0	0	0	0	catFR2	0	R1041M
1599.018	1.6	900440	WORD	n/a	wordpools/wordpool_categorized_EN.txt	RULER	OfficeSupplies	10	0	13	[0, 0, 0]	n/a	0	0	0	n/a	n/a	0.0	0	0	0	catFR2	0	R1041M
1601.602	1.6	901732	WORD	n/a	wordpools/wordpool_categorized_EN.txt	RAIN	Weather	11	0	13	[0, 0, 0]	n/a	0	0	0	n/a	n/a	0.0	0	0	0	catFR2	0	R1041M
1604.069	1.6	902965	WORD	n/a	wordpools/wordpool_categorized_EN.txt	CLOUD	Weather	12	0	13	[0, 0, 0]	n/a	0	0	0	n/a	n/a	0.0	0	0	0	catFR2	0	R1041M
1605.686	0.001	903773	DISTRACT_START	n/a	n/a	n/a	n/a	-999	0	13	[0, 0, 0]	n/a	0	0	0	n/a	n/a	0.0	0	0	0	catFR2	0	R1041M
1605.687	0.016	903774	START	n/a	n/a	n/a	n/a	-999	0	13	[-999, -999, -999]	n/a	0	0	0	n/a	n/a	0.0	0	0	0	catFR2	0	R1041M
1605.703	5.317	903782	PROB	5.293	n/a	n/a	n/a	-999	0	13	[8, 5, 4]	11	0	0	0	n/a	n/a	0.0	0	0	0	catFR2	0	R1041M
1611.02	1.434	906440	PROB	1.408	n/a	n/a	n/a	-999	0	13	[1, 7, 8]	11	0	0	0	n/a	n/a	0.0	0	0	0	catFR2	0	R1041M
1612.454	1.017	907157	PROB	0.99	n/a	n/a	n/a	-999	0	13	[8, 5, 6]	11	0	0	0	n/a	n/a	0.0	0	0	0	catFR2	0	R1041M
1613.471	0.933	907666	PROB	0.909	n/a	n/a	n/a	-999	0	13	[6, 9, 1]	11	0	0	0	n/a	n/a	0.0	0	0	0	catFR2	0	R1041M
1614.404	0.984	908132	PROB	0.96	n/a	n/a	n/a	-999	0	13	[3, 4, 9]	11	0	0	0	n/a	n/a	0.0	0	0	0	catFR2	0	R1041M
1615.388	1.05	908624	PROB	1.016	n/a	n/a	n/a	-999	0	13	[1, 2, 1]	11	0	0	0	n/a	n/a	0.0	0	0	0	catFR2	0	R1041M
1616.438	1.083	909149	PROB	1.054	n/a	n/a	n/a	-999	0	13	[8, 1, 6]	11	0	0	0	n/a	n/a	0.0	0	0	0	catFR2	0	R1041M
1617.521	1.117	909690	PROB	1.083	n/a	n/a	n/a	-999	0	13	[3, 1, 2]	11	0	0	0	n/a	n/a	0.0	0	0	0	catFR2	0	R1041M
1618.638	1.017	910249	PROB	0.982	n/a	n/a	n/a	-999	0	13	[6, 6, 2]	11	0	0	0	n/a	n/a	0.0	0	0	0	catFR2	0	R1041M
1619.655	1.067	910757	PROB	1.045	n/a	n/a	n/a	-999	0	13	[1, 1, 2]	11	0	0	0	n/a	n/a	0.0	0	0	0	catFR2	0	R1041M
1620.722	1.05	911291	PROB	1.026	n/a	n/a	n/a	-999	0	13	[3, 7, 5]	11	0	0	0	n/a	n/a	0.0	0	0	0	catFR2	0	R1041M
1621.772	1.067	911816	PROB	1.032	n/a	n/a	n/a	-999	0	13	[1, 3, 3]	11	0	0	0	n/a	n/a	0.0	0	0	0	catFR2	0	R1041M
1622.839	1.05	912349	PROB	1.021	n/a	n/a	n/a	-999	0	13	[4, 3, 7]	11	0	0	0	n/a	n/a	0.0	0	0	0	catFR2	0	R1041M
1623.889	0.984	912874	PROB	0.963	n/a	n/a	n/a	-999	0	13	[9, 6, 4]	11	0	0	0	n/a	n/a	0.0	0	0	0	catFR2	0	R1041M
1624.873	1.083	913366	PROB	1.083	n/a	n/a	n/a	-999	0	13	[5, 6, 9]	11	0	0	0	n/a	n/a	0.0	0	0	0	catFR2	0	R1041M
1625.956	0.017	913907	STOP	n/a	n/a	n/a	n/a	-999	0	13	[-999, -999, -999]	n/a	0	0	0	n/a	n/a	0.0	0	0	0	catFR2	0	R1041M
1625.973	1.101	913916	DISTRACT_END	n/a	n/a	n/a	n/a	-999	0	13	[0, 0, 0]	n/a	0	0	0	n/a	n/a	0.0	0	0	0	catFR2	0	R1041M
1627.074	16.056	914466	REC_START	n/a	n/a	n/a	n/a	-999	0	13	[0, 0, 0]	n/a	0	0	0	n/a	n/a	0.0	0	0	0	catFR2	0	R1041M
1643.13	13.956	922493	REC_WORD	16.056	n/a	ERASER	OfficeSupplies	1	1	13	[0, 0, 0]	n/a	0	0	0	n/a	n/a	0.0	0	0	0	catFR2	0	R1041M
1657.086	11.262	929471	REC_END	n/a	n/a	n/a	n/a	-999	0	13	[0, 0, 0]	n/a	0	0	0	n/a	n/a	0.0	0	0	0	catFR2	0	R1041M
1668.348	0.0	935101	TRIAL	n/a	n/a	n/a	n/a	-999	0	14	[0, 0, 0]	n/a	0	1	0	n/a	n/a	0.0	0	0	0	catFR2	0	R1041M
1668.348	10.0	935101	COUNTDOWN_START	n/a	n/a	n/a	n/a	-999	0	14	[0, 0, 0]	n/a	0	1	0	n/a	n/a	0.0	0	0	0	catFR2	0	R1041M
1678.776	0.007	940315	COUNTDOWN_END	n/a	n/a	n/a	n/a	-999	0	14	[0, 0, 0]	n/a	0	1	0	n/a	n/a	0.0	0	0	0	catFR2	0	R1041M
1678.783	1.6	940318	ORIENT	n/a	n/a	n/a	n/a	-999	0	14	[0, 0, 0]	n/a	0	1	0	n/a	n/a	0.0	0	0	0	catFR2	0	R1041M
1682.417	1.6	942135	WORD	n/a	wordpools/wordpool_categorized_EN.txt	CROWBAR	Tools	1	0	14	[0, 0, 0]	n/a	0	1	0	n/a	n/a	0.0	0	0	0	catFR2	0	R1041M
1684.968	1.6	943410	WORD	n/a	wordpools/wordpool_categorized_EN.txt	RATCHET	Tools	2	0	14	[0, 0, 0]	n/a	0	1	0	n/a	n/a	0.0	0	0	0	catFR2	0	R1041M
1687.321	4.6	944587	STIM_ON	n/a	n/a	n/a	n/a	-999	0	14	[0, 0, 0]	n/a	1	1	4600	LFG18	LFG25	3000.0	50	230	300	catFR2	0	R1041M
1687.535	1.6	944694	WORD	n/a	wordpools/wordpool_categorized_EN.txt	FLOOR	Building	3	0	14	[0, 0, 0]	n/a	1	1	4600	LFG18	LFG25	3000.0	50	230	300	catFR2	0	R1041M
1689.952	1.6	945902	WORD	n/a	wordpools/wordpool_categorized_EN.txt	FOUNDATION	Building	4	0	14	[0, 0, 0]	n/a	1	1	4600	LFG18	LFG25	3000.0	50	230	300	catFR2	0	R1041M
1692.553	1.6	947202	WORD	n/a	wordpools/wordpool_categorized_EN.txt	JUICE	Beverages	5	0	14	[0, 0, 0]	n/a	0	1	0	n/a	n/a	0.0	0	0	0	catFR2	0	R1041M
1695.104	1.6	948478	WORD	n/a	wordpools/wordpool_categorized_EN.txt	RUM	Beverages	6	0	14	[0, 0, 0]	n/a	0	1	0	n/a	n/a	0.0	0	0	0	catFR2	0	R1041M
1697.4	4.6	949626	STIM_ON	n/a	n/a	n/a	n/a	-999	0	14	[0, 0, 0]	n/a	1	1	4600	LFG18	LFG25	3000.0	50	230	300	catFR2	0	R1041M
1697.62	1.6	949736	WORD	n/a	wordpools/wordpool_categorized_EN.txt	STAIRS	Building	7	1	14	[0, 0, 0]	n/a	1	1	4600	LFG18	LFG25	3000.0	50	230	300	catFR2	0	R1041M
1700.155	1.6	951003	WORD	n/a	wordpools/wordpool_categorized_EN.txt	CEILING	Building	8	0	14	[0, 0, 0]	n/a	1	1	4600	LFG18	LFG25	3000.0	50	230	300	catFR2	0	R1041M
1702.621	1.6	952236	WORD	n/a	wordpools/wordpool_categorized_EN.txt	DRILL	Tools	9	0	14	[0, 0, 0]	n/a	0	1	0	n/a	n/a	0.0	0	0	0	catFR2	0	R1041M
1705.055	1.6	953453	WORD	n/a	wordpools/wordpool_categorized_EN.txt	LEVEL	Tools	10	0	14	[0, 0, 0]	n/a	0	1	0	n/a	n/a	0.0	0	0	0	catFR2	0	R1041M
1707.28	4.6	954565	STIM_ON	n/a	n/a	n/a	n/a	-999	0	14	[0, 0, 0]	n/a	1	1	4600	LFG18	LFG25	3000.0	50	230	300	catFR2	0	R1041M
1707.489	1.6	954670	WORD	n/a	wordpools/wordpool_categorized_EN.txt	BEER	Beverages	11	0	14	[0, 0, 0]	n/a	1	1	4600	LFG18	LFG25	3000.0	50	230	300	catFR2	0	R1041M
1709.856	1.6	955853	WORD	n/a	wordpools/wordpool_categorized_EN.txt	COFFEE	Beverages	12	0	14	[0, 0, 0]	n/a	1	1	4600	LFG18	LFG25	3000.0	50	230	300	catFR2	0	R1041M
1711.473	0.001	956661	DISTRACT_START	n/a	n/a	n/a	n/a	-999	0	14	[0, 0, 0]	n/a	0	1	0	n/a	n/a	0.0	0	0	0	catFR2	0	R1041M
1711.474	0.016	956662	START	n/a	n/a	n/a	n/a	-999	0	14	[-999, -999, -999]	n/a	0	1	0	n/a	n/a	0.0	0	0	0	catFR2	0	R1041M
1711.49	4.752	956670	PROB	4.723	n/a	n/a	n/a	-999	0	14	[2, 8, 3]	11	0	1	0	n/a	n/a	0.0	0	0	0	catFR2	0	R1041M
1716.242	1.282	959046	PROB	1.258	n/a	n/a	n/a	-999	0	14	[2, 1, 5]	11	0	1	0	n/a	n/a	0.0	0	0	0	catFR2	0	R1041M
1717.524	0.967	959687	PROB	0.936	n/a	n/a	n/a	-999	0	14	[5, 4, 8]	11	0	1	0	n/a	n/a	0.0	0	0	0	catFR2	0	R1041M
1718.491	0.934	960170	PROB	0.897	n/a	n/a	n/a	-999	0	14	[5, 5, 4]	11	0	1	0	n/a	n/a	0.0	0	0	0	catFR2	0	R1041M
1719.425	1.0	960637	PROB	0.971	n/a	n/a	n/a	-999	0	14	[9, 7, 6]	11	0	1	0	n/a	n/a	0.0	0	0	0	catFR2	0	R1041M
1720.425	1.017	961137	PROB	0.987	n/a	n/a	n/a	-999	0	14	[9, 3, 1]	11	0	1	0	n/a	n/a	0.0	0	0	0	catFR2	0	R1041M
1721.442	1.016	961645	PROB	0.994	n/a	n/a	n/a	-999	0	14	[9, 6, 6]	11	0	1	0	n/a	n/a	0.0	0	0	0	catFR2	0	R1041M
1722.458	0.984	962153	PROB	0.954	n/a	n/a	n/a	-999	0	14	[4, 7, 3]	11	0	1	0	n/a	n/a	0.0	0	0	0	catFR2	0	R1041M
1723.442	0.984	962645	PROB	0.954	n/a	n/a	n/a	-999	0	14	[6, 1, 9]	11	0	1	0	n/a	n/a	0.0	0	0	0	catFR2	0	R1041M
1724.426	1.1	963137	PROB	1.074	n/a	n/a	n/a	-999	0	14	[7, 4, 9]	11	0	1	0	n/a	n/a	0.0	0	0	0	catFR2	0	R1041M
1725.526	1.067	963687	PROB	1.03	n/a	n/a	n/a	-999	0	14	[9, 7, 1]	11	0	1	0	n/a	n/a	0.0	0	0	0	catFR2	0	R1041M
1726.593	1.0	964221	PROB	0.971	n/a	n/a	n/a	-999	0	14	[4, 8, 4]	11	0	1	0	n/a	n/a	0.0	0	0	0	catFR2	0	R1041M
1727.593	1.033	964721	PROB	1.011	n/a	n/a	n/a	-999	0	14	[9, 4, 9]	11	0	1	0	n/a	n/a	0.0	0	0	0	catFR2	0	R1041M
1728.626	0.984	965237	PROB	0.954	n/a	n/a	n/a	-999	0	14	[2, 7, 8]	11	0	1	0	n/a	n/a	0.0	0	0	0	catFR2	0	R1041M
1729.61	1.033	965729	PROB	1.01	n/a	n/a	n/a	-999	0	14	[5, 5, 7]	11	0	1	0	n/a	n/a	0.0	0	0	0	catFR2	0	R1041M
1730.643	1.137	966245	PROB	1.137	n/a	n/a	n/a	-999	0	14	[9, 8, 3]	11	0	1	0	n/a	n/a	0.0	0	0	0	catFR2	0	R1041M
1731.78	0.014	966814	STOP	n/a	n/a	n/a	n/a	-999	0	14	[-999, -999, -999]	n/a	0	1	0	n/a	n/a	0.0	0	0	0	catFR2	0	R1041M
1731.794	1.067	966821	DISTRACT_END	n/a	n/a	n/a	n/a	-999	0	14	[0, 0, 0]	n/a	0	1	0	n/a	n/a	0.0	0	0	0	catFR2	0	R1041M
1732.861	1.189	967354	REC_START	n/a	n/a	n/a	n/a	-999	0	14	[0, 0, 0]	n/a	0	1	0	n/a	n/a	0.0	0	0	0	catFR2	0	R1041M
1734.05	6.349	967949	REC_WORD	1.189	n/a	STAIRS	Building	7	1	14	[0, 0, 0]	n/a	0	1	0	n/a	n/a	0.0	0	0	0	catFR2	0	R1041M
1740.399	22.473	971123	REC_WORD	7.538	n/a	TILE	n/a	-999	0	14	[0, 0, 0]	n/a	0	1	0	n/a	n/a	0.0	0	0	0	catFR2	0	R1041M
1762.872	12.547	982358	REC_END	n/a	n/a	n/a	n/a	-999	0	14	[0, 0, 0]	n/a	0	1	0	n/a	n/a	0.0	0	0	0	catFR2	0	R1041M
1775.419	0.0	988631	TRIAL	n/a	n/a	n/a	n/a	-999	0	15	[0, 0, 0]	n/a	0	0	0	n/a	n/a	0.0	0	0	0	catFR2	0	R1041M
1775.419	10.0	988631	COUNTDOWN_START	n/a	n/a	n/a	n/a	-999	0	15	[0, 0, 0]	n/a	0	0	0	n/a	n/a	0.0	0	0	0	catFR2	0	R1041M
1785.847	0.007	993845	COUNTDOWN_END	n/a	n/a	n/a	n/a	-999	0	15	[0, 0, 0]	n/a	0	0	0	n/a	n/a	0.0	0	0	0	catFR2	0	R1041M
1785.854	1.6	993848	ORIENT	n/a	n/a	n/a	n/a	-999	0	15	[0, 0, 0]	n/a	0	0	0	n/a	n/a	0.0	0	0	0	catFR2	0	R1041M
1789.705	1.6	995773	WORD	n/a	wordpools/wordpool_categorized_EN.txt	SPINACH	Vegetables	1	0	15	[0, 0, 0]	n/a	0	0	0	n/a	n/a	0.0	0	0	0	catFR2	0	R1041M
1792.206	1.6	997024	WORD	n/a	wordpools/wordpool_categorized_EN.txt	CORN	Vegetables	2	0	15	[0, 0, 0]	n/a	0	0	0	n/a	n/a	0.0	0	0	0	catFR2	0	R1041M
1794.822	1.6	998332	WORD	n/a	wordpools/wordpool_categorized_EN.txt	DOVE	Birds	3	0	15	[0, 0, 0]	n/a	0	0	0	n/a	n/a	0.0	0	0	0	catFR2	0	R1041M
1797.423	1.6	999632	WORD	n/a	wordpools/wordpool_categorized_EN.txt	SEAGULL	Birds	4	0	15	[0, 0, 0]	n/a	0	0	0	n/a	n/a	0.0	0	0	0	catFR2	0	R1041M
1800.023	1.6	1000932	WORD	n/a	wordpools/wordpool_categorized_EN.txt	ROSE	Flowers	5	0	15	[0, 0, 0]	n/a	0	0	0	n/a	n/a	0.0	0	0	0	catFR2	0	R1041M
1802.524	1.6	1002182	WORD	n/a	wordpools/wordpool_categorized_EN.txt	SUNFLOWER	Flowers	6	1	15	[0, 0, 0]	n/a	0	0	0	n/a	n/a	0.0	0	0	0	catFR2	0	R1041M
1805.092	1.6	1003466	WORD	n/a	wordpools/wordpool_categorized_EN.txt	CABBAGE	Vegetables	7	0	15	[0, 0, 0]	n/a	0	0	0	n/a	n/a	0.0	0	0	0	catFR2	0	R1041M
1807.642	1.6	1004741	WORD	n/a	wordpools/wordpool_categorized_EN.txt	CAULIFLOWER	Vegetables	8	0	15	[0, 0, 0]	n/a	0	0	0	n/a	n/a	0.0	0	0	0	catFR2	0	R1041M
1810.11	1.6	1005975	WORD	n/a	wordpools/wordpool_categorized_EN.txt	TULIP	Flowers	9	0	15	[0, 0, 0]	n/a	0	0	0	n/a	n/a	0.0	0	0	0	catFR2	0	R1041M
1812.709	1.6	1007274	WORD	n/a	wordpools/wordpool_categorized_EN.txt	LILAC	Flowers	10	0	15	[0, 0, 0]	n/a	0	0	0	n/a	n/a	0.0	0	0	0	catFR2	0	R1041M
1815.294	1.6	1008567	WORD	n/a	wordpools/wordpool_categorized_EN.txt	HAWK	Birds	11	0	15	[0, 0, 0]	n/a	0	0	0	n/a	n/a	0.0	0	0	0	catFR2	0	R1041M
1817.894	1.6	1009866	WORD	n/a	wordpools/wordpool_categorized_EN.txt	CARDINAL	Birds	12	0	15	[0, 0, 0]	n/a	0	0	0	n/a	n/a	0.0	0	0	0	catFR2	0	R1041M
1819.511	0.001	1010675	DISTRACT_START	n/a	n/a	n/a	n/a	-999	0	15	[0, 0, 0]	n/a	0	0	0	n/a	n/a	0.0	0	0	0	catFR2	0	R1041M
1819.512	0.015	1010675	START	n/a	n/a	n/a	n/a	-999	0	15	[-999, -999, -999]	n/a	0	0	0	n/a	n/a	0.0	0	0	0	catFR2	0	R1041M
1819.527	4.786	1010683	PROB	4.75	n/a	n/a	n/a	-999	0	15	[3, 4, 7]	11	0	0	0	n/a	n/a	0.0	0	0	0	catFR2	0	R1041M
1824.313	1.565	1013076	PROB	1.539	n/a	n/a	n/a	-999	0	15	[9, 3, 3]	11	0	0	0	n/a	n/a	0.0	0	0	0	catFR2	0	R1041M
1825.878	1.034	1013858	PROB	1.006	n/a	n/a	n/a	-999	0	15	[4, 2, 7]	11	0	0	0	n/a	n/a	0.0	0	0	0	catFR2	0	R1041M
1826.912	1.201	1014375	PROB	1.173	n/a	n/a	n/a	-999	0	15	[2, 1, 1]	11	0	0	0	n/a	n/a	0.0	0	0	0	catFR2	0	R1041M
1828.113	1.0	1014975	PROB	0.972	n/a	n/a	n/a	-999	0	15	[4, 6, 2]	11	0	0	0	n/a	n/a	0.0	0	0	0	catFR2	0	R1041M
1829.113	0.967	1015475	PROB	0.939	n/a	n/a	n/a	-999	0	15	[7, 7, 6]	11	0	0	0	n/a	n/a	0.0	0	0	0	catFR2	0	R1041M
1830.08	1.134	1015959	PROB	1.101	n/a	n/a	n/a	-999	0	15	[5, 1, 5]	11	0	0	0	n/a	n/a	0.0	0	0	0	catFR2	0	R1041M
1831.214	1.216	1016526	PROB	1.182	n/a	n/a	n/a	-999	0	15	[2, 1, 5]	11	0	0	0	n/a	n/a	0.0	0	0	0	catFR2	0	R1041M
1832.43	1.0	1017134	PROB	0.966	n/a	n/a	n/a	-999	0	15	[6, 4, 3]	11	0	0	0	n/a	n/a	0.0	0	0	0	catFR2	0	R1041M
1833.43	1.05	1017634	PROB	1.014	n/a	n/a	n/a	-999	0	15	[8, 7, 4]	11	0	0	0	n/a	n/a	0.0	0	0	0	catFR2	0	R1041M
1834.48	1.017	1018159	PROB	0.996	n/a	n/a	n/a	-999	0	15	[3, 1, 9]	11	0	0	0	n/a	n/a	0.0	0	0	0	catFR2	0	R1041M
1835.497	1.0	1018667	PROB	0.979	n/a	n/a	n/a	-999	0	15	[5, 6, 8]	11	0	0	0	n/a	n/a	0.0	0	0	0	catFR2	0	R1041M
1836.497	1.05	1019167	PROB	1.027	n/a	n/a	n/a	-999	0	15	[2, 2, 2]	11	0	0	0	n/a	n/a	0.0	0	0	0	catFR2	0	R1041M
1837.547	1.602	1019692	PROB	1.57	n/a	n/a	n/a	-999	0	15	[7, 2, 9]	111	0	0	0	n/a	n/a	0.0	0	0	0	catFR2	0	R1041M
1839.149	1.695	1020493	PROB	1.695	n/a	n/a	n/a	-999	0	15	[4, 8, 3]	11	0	0	0	n/a	n/a	0.0	0	0	0	catFR2	0	R1041M
1840.844	0.004	1021340	STOP	n/a	n/a	n/a	n/a	-999	0	15	[-999, -999, -999]	n/a	0	0	0	n/a	n/a	0.0	0	0	0	catFR2	0	R1041M
1840.848	1.084	1021342	DISTRACT_END	n/a	n/a	n/a	n/a	-999	0	15	[0, 0, 0]	n/a	0	0	0	n/a	n/a	0.0	0	0	0	catFR2	0	R1041M
1841.932	11.371	1021884	REC_START	n/a	n/a	n/a	n/a	-999	0	15	[0, 0, 0]	n/a	0	0	0	n/a	n/a	0.0	0	0	0	catFR2	0	R1041M
1853.303	18.641	1027569	REC_WORD	11.371	n/a	SUNFLOWER	Flowers	6	1	15	[0, 0, 0]	n/a	0	0	0	n/a	n/a	0.0	0	0	0	catFR2	0	R1041M
1871.944	12.646	1036889	REC_END	n/a	n/a	n/a	n/a	-999	0	15	[0, 0, 0]	n/a	0	0	0	n/a	n/a	0.0	0	0	0	catFR2	0	R1041M
1884.59	0.0	1043211	TRIAL	n/a	n/a	n/a	n/a	-999	0	16	[0, 0, 0]	n/a	0	1	0	n/a	n/a	0.0	0	0	0	catFR2	0	R1041M
1884.59	10.0	1043211	COUNTDOWN_START	n/a	n/a	n/a	n/a	-999	0	16	[0, 0, 0]	n/a	0	1	0	n/a	n/a	0.0	0	0	0	catFR2	0	R1041M
