onset	duration	sample	trial_type	response_time	stim_file	item_name	category	serialpos	recalled	list	test	answer	stimulation	stim_list	stim_duration	anode_label	cathode_label	amplitude	pulse_freq	n_pulses	pulse_width	experiment	session	subject
0.0	11.972	45757	SESS_START	n/a	n/a	n/a	n/a	-999	0	-999	[0, 0, 0]	n/a	0	0	0	n/a	n/a	0.0	0	0	0	catFR2	1	R1036M
11.972	10.0	51743	COUNTDOWN_START	n/a	n/a	n/a	n/a	-999	0	-999	[0, 0, 0]	n/a	0	0	0	n/a	n/a	0.0	0	0	0	catFR2	1	R1036M
22.4	3.641	56956	COUNTDOWN_END	n/a	n/a	n/a	n/a	-999	0	-999	[0, 0, 0]	n/a	0	0	0	n/a	n/a	0.0	0	0	0	catFR2	1	R1036M
26.041	1.6	58777	PRACTICE_WORD	n/a	n/a	BEAM	n/a	-999	0	1	[0, 0, 0]	n/a	0	0	0	n/a	n/a	0.0	0	0	0	catFR2	1	R1036M
28.508	1.6	60010	PRACTICE_WORD	n/a	n/a	FLOOD	n/a	-999	0	2	[0, 0, 0]	n/a	0	0	0	n/a	n/a	0.0	0	0	0	catFR2	1	R1036M
31.059	1.6	61286	PRACTICE_WORD	n/a	n/a	ATTIC	n/a	-999	0	3	[0, 0, 0]	n/a	0	0	0	n/a	n/a	0.0	0	0	0	catFR2	1	R1036M
33.643	1.6	62577	PRACTICE_WORD	n/a	n/a	RING	n/a	-999	0	4	[0, 0, 0]	n/a	0	0	0	n/a	n/a	0.0	0	0	0	catFR2	1	R1036M
36.21	1.6	63861	PRACTICE_WORD	n/a	n/a	IRON	n/a	-999	0	5	[0, 0, 0]	n/a	0	0	0	n/a	n/a	0.0	0	0	0	catFR2	1	R1036M
38.61	1.6	65061	PRACTICE_WORD	n/a	n/a	COTTON	n/a	-999	0	6	[0, 0, 0]	n/a	0	0	0	n/a	n/a	0.0	0	0	0	catFR2	1	R1036M
41.228	1.6	66370	PRACTICE_WORD	n/a	n/a	CAMEL	n/a	-999	0	7	[0, 0, 0]	n/a	0	0	0	n/a	n/a	0.0	0	0	0	catFR2	1	R1036M
43.611	1.6	67561	PRACTICE_WORD	n/a	n/a	TONGUE	n/a	-999	0	8	[0, 0, 0]	n/a	0	0	0	n/a	n/a	0.0	0	0	0	catFR2	1	R1036M
46.095	1.6	68803	PRACTICE_WORD	n/a	n/a	CHEST	n/a	-999	0	9	[0, 0, 0]	n/a	0	0	0	n/a	n/a	0.0	0	0	0	catFR2	1	R1036M
48.579	1.6	70045	PRACTICE_WORD	n/a	n/a	WAGON	n/a	-999	0	10	[0, 0, 0]	n/a	0	0	0	n/a	n/a	0.0	0	0	0	catFR2	1	R1036M
50.963	1.6	71237	PRACTICE_WORD	n/a	n/a	RHINO	n/a	-999	0	11	[0, 0, 0]	n/a	0	0	0	n/a	n/a	0.0	0	0	0	catFR2	1	R1036M
53.447	1.6	72479	PRACTICE_WORD	n/a	n/a	WATCH	n/a	-999	0	12	[0, 0, 0]	n/a	0	0	0	n/a	n/a	0.0	0	0	0	catFR2	1	R1036M
55.064	0.001	73287	PRACTICE_DISTRACT_START	n/a	n/a	n/a	n/a	-999	0	-999	[0, 0, 0]	n/a	0	0	0	n/a	n/a	0.0	0	0	0	catFR2	1	R1036M
55.065	0.015	73288	START	n/a	n/a	n/a	n/a	-999	0	-1	[-999, -999, -999]	n/a	0	-999	0	n/a	n/a	0.0	0	0	0	catFR2	1	R1036M
55.08	11.819	73295	PROB	11.788	n/a	n/a	n/a	-999	0	-1	[9, 2, 6]	17	0	-999	0	n/a	n/a	0.0	0	0	0	catFR2	1	R1036M
66.899	4.901	79205	PROB	4.873	n/a	n/a	n/a	-999	0	-1	[1, 8, 2]	11	0	-999	0	n/a	n/a	0.0	0	0	0	catFR2	1	R1036M
71.8	6.557	81655	PROB	6.557	n/a	n/a	n/a	-999	0	-1	[5, 7, 2]	13	0	-999	0	n/a	n/a	0.0	0	0	0	catFR2	1	R1036M
78.357	0.012	84933	STOP	n/a	n/a	n/a	n/a	-999	0	-1	[-999, -999, -999]	n/a	0	-999	0	n/a	n/a	0.0	0	0	0	catFR2	1	R1036M
78.369	0.601	84939	PRACTICE_DISTRACT_END	n/a	n/a	n/a	n/a	-999	0	-999	[0, 0, 0]	n/a	0	0	0	n/a	n/a	0.0	0	0	0	catFR2	1	R1036M
78.97	30.515	85240	PRACTICE_REC_START	n/a	n/a	n/a	n/a	-999	0	-999	[0, 0, 0]	n/a	0	0	0	n/a	n/a	0.0	0	0	0	catFR2	1	R1036M
109.485	12.558	100496	PRACTICE_REC_END	n/a	n/a	n/a	n/a	-999	0	-999	[0, 0, 0]	n/a	0	0	0	n/a	n/a	0.0	0	0	0	catFR2	1	R1036M
122.043	10.0	106775	COUNTDOWN_START	n/a	n/a	n/a	n/a	-999	0	1	[0, 0, 0]	n/a	0	1	0	n/a	n/a	0.0	0	0	0	catFR2	1	R1036M
122.044	10.427	106775	TRIAL	n/a	n/a	n/a	n/a	-999	0	1	[0, 0, 0]	n/a	0	1	0	n/a	n/a	0.0	0	0	0	catFR2	1	R1036M
132.471	0.008	111989	COUNTDOWN_END	n/a	n/a	n/a	n/a	-999	0	1	[0, 0, 0]	n/a	0	1	0	n/a	n/a	0.0	0	0	0	catFR2	1	R1036M
132.479	1.6	111993	ORIENT	n/a	n/a	n/a	n/a	-999	0	1	[0, 0, 0]	n/a	0	1	0	n/a	n/a	0.0	0	0	0	catFR2	1	R1036M
136.279	1.6	113893	WORD	n/a	wordpools/wordpool_categorized_EN.txt	GNAT	Insects	1	0	1	[0, 0, 0]	n/a	0	1	0	n/a	n/a	0.0	0	0	0	catFR2	1	R1036M
138.746	1.6	115126	WORD	n/a	wordpools/wordpool_categorized_EN.txt	MOSQUITO	Insects	2	0	1	[0, 0, 0]	n/a	0	1	0	n/a	n/a	0.0	0	0	0	catFR2	1	R1036M
140.959	4.6	116232	STIM_ON	n/a	n/a	n/a	n/a	-999	0	1	[0, 0, 0]	n/a	1	1	4600	LATD1	LATD2	1000.0	50	230	300	catFR2	1	R1036M
141.164	1.6	116335	WORD	n/a	wordpools/wordpool_categorized_EN.txt	PIANO	Instruments	3	1	1	[0, 0, 0]	n/a	1	1	4600	LATD1	LATD2	1000.0	50	230	300	catFR2	1	R1036M
143.681	1.6	117593	WORD	n/a	wordpools/wordpool_categorized_EN.txt	TROMBONE	Instruments	4	0	1	[0, 0, 0]	n/a	1	1	4600	LATD1	LATD2	1000.0	50	230	300	catFR2	1	R1036M
146.181	1.6	118843	WORD	n/a	wordpools/wordpool_categorized_EN.txt	DAISY	Flowers	5	1	1	[0, 0, 0]	n/a	0	1	0	n/a	n/a	0.0	0	0	0	catFR2	1	R1036M
148.615	1.6	120060	WORD	n/a	wordpools/wordpool_categorized_EN.txt	CARNATION	Flowers	6	1	1	[0, 0, 0]	n/a	0	1	0	n/a	n/a	0.0	0	0	0	catFR2	1	R1036M
150.998	4.6	121252	STIM_ON	n/a	n/a	n/a	n/a	-999	0	1	[0, 0, 0]	n/a	1	1	4600	LATD1	LATD2	1000.0	50	230	300	catFR2	1	R1036M
151.216	1.6	121361	WORD	n/a	wordpools/wordpool_categorized_EN.txt	SPIDER	Insects	7	0	1	[0, 0, 0]	n/a	1	1	4600	LATD1	LATD2	1000.0	50	230	300	catFR2	1	R1036M
153.683	1.6	122594	WORD	n/a	wordpools/wordpool_categorized_EN.txt	LADYBUG	Insects	8	0	1	[0, 0, 0]	n/a	1	1	4600	LATD1	LATD2	1000.0	50	230	300	catFR2	1	R1036M
156.233	1.6	123869	WORD	n/a	wordpools/wordpool_categorized_EN.txt	DAFFODIL	Flowers	9	0	1	[0, 0, 0]	n/a	0	1	0	n/a	n/a	0.0	0	0	0	catFR2	1	R1036M
158.684	1.6	125094	WORD	n/a	wordpools/wordpool_categorized_EN.txt	TULIP	Flowers	10	1	1	[0, 0, 0]	n/a	0	1	0	n/a	n/a	0.0	0	0	0	catFR2	1	R1036M
161.04	4.6	126272	STIM_ON	n/a	n/a	n/a	n/a	-999	0	1	[0, 0, 0]	n/a	1	1	4600	LATD1	LATD2	1000.0	50	230	300	catFR2	1	R1036M
161.268	1.6	126386	WORD	n/a	wordpools/wordpool_categorized_EN.txt	TUBA	Instruments	11	1	1	[0, 0, 0]	n/a	1	1	4600	LATD1	LATD2	1000.0	50	230	300	catFR2	1	R1036M
163.868	1.6	127686	WORD	n/a	wordpools/wordpool_categorized_EN.txt	GUITAR	Instruments	12	1	1	[0, 0, 0]	n/a	1	1	4600	LATD1	LATD2	1000.0	50	230	300	catFR2	1	R1036M
165.485	0.001	128495	DISTRACT_START	n/a	n/a	n/a	n/a	-999	0	1	[0, 0, 0]	n/a	0	1	0	n/a	n/a	0.0	0	0	0	catFR2	1	R1036M
165.486	0.016	128495	START	n/a	n/a	n/a	n/a	-999	0	1	[-999, -999, -999]	n/a	0	1	0	n/a	n/a	0.0	0	0	0	catFR2	1	R1036M
165.502	6.184	128503	PROB	6.158	n/a	n/a	n/a	-999	0	1	[6, 4, 2]	12	0	1	0	n/a	n/a	0.0	0	0	0	catFR2	1	R1036M
171.686	3.851	131595	PROB	3.83	n/a	n/a	n/a	-999	0	1	[2, 4, 1]	9	0	1	0	n/a	n/a	0.0	0	0	0	catFR2	1	R1036M
175.537	4.467	133520	PROB	4.435	n/a	n/a	n/a	-999	0	1	[8, 2, 3]	13	0	1	0	n/a	n/a	0.0	0	0	0	catFR2	1	R1036M
180.004	7.056	135754	PROB	7.056	n/a	n/a	n/a	-999	0	1	[3, 1, 6]	10	0	1	0	n/a	n/a	0.0	0	0	0	catFR2	1	R1036M
187.06	0.013	139282	STOP	n/a	n/a	n/a	n/a	-999	0	1	[-999, -999, -999]	n/a	0	1	0	n/a	n/a	0.0	0	0	0	catFR2	1	R1036M
187.073	1.1	139288	DISTRACT_END	n/a	n/a	n/a	n/a	-999	0	1	[0, 0, 0]	n/a	0	1	0	n/a	n/a	0.0	0	0	0	catFR2	1	R1036M
188.173	0.772	139838	REC_START	n/a	n/a	n/a	n/a	-999	0	1	[0, 0, 0]	n/a	0	1	0	n/a	n/a	0.0	0	0	0	catFR2	1	R1036M
188.945	1.328	140224	REC_WORD	0.772	n/a	PIANO	Instruments	3	1	1	[0, 0, 0]	n/a	0	1	0	n/a	n/a	0.0	0	0	0	catFR2	1	R1036M
190.273	3.564	140888	REC_WORD	2.1	n/a	GUITAR	Instruments	12	1	1	[0, 0, 0]	n/a	0	1	0	n/a	n/a	0.0	0	0	0	catFR2	1	R1036M
193.837	3.89	142670	REC_WORD	5.664	n/a	TUBA	Instruments	11	1	1	[0, 0, 0]	n/a	0	1	0	n/a	n/a	0.0	0	0	0	catFR2	1	R1036M
197.727	1.406	144615	REC_WORD	9.554	n/a	ROSE	n/a	-999	0	1	[0, 0, 0]	n/a	0	1	0	n/a	n/a	0.0	0	0	0	catFR2	1	R1036M
199.133	1.676	145318	REC_WORD	10.96	n/a	CARNATION	Flowers	6	1	1	[0, 0, 0]	n/a	0	1	0	n/a	n/a	0.0	0	0	0	catFR2	1	R1036M
200.809	1.778	146156	REC_WORD	12.636	n/a	DAISY	Flowers	5	1	1	[0, 0, 0]	n/a	0	1	0	n/a	n/a	0.0	0	0	0	catFR2	1	R1036M
202.587	5.349	147045	REC_WORD	14.414	n/a	TULIP	Flowers	10	1	1	[0, 0, 0]	n/a	0	1	0	n/a	n/a	0.0	0	0	0	catFR2	1	R1036M
207.936	10.25	149719	REC_WORD	19.763	n/a	VIOLIN	n/a	-999	0	1	[0, 0, 0]	n/a	0	1	0	n/a	n/a	0.0	0	0	0	catFR2	1	R1036M
218.186	14.795	154844	REC_END	n/a	n/a	n/a	n/a	-999	0	1	[0, 0, 0]	n/a	0	1	0	n/a	n/a	0.0	0	0	0	catFR2	1	R1036M
232.981	10.0	162241	COUNTDOWN_START	n/a	n/a	n/a	n/a	-999	0	2	[0, 0, 0]	n/a	0	1	0	n/a	n/a	0.0	0	0	0	catFR2	1	R1036M
232.982	10.427	162241	TRIAL	n/a	n/a	n/a	n/a	-999	0	2	[0, 0, 0]	n/a	0	1	0	n/a	n/a	0.0	0	0	0	catFR2	1	R1036M
243.409	0.009	167455	COUNTDOWN_END	n/a	n/a	n/a	n/a	-999	0	2	[0, 0, 0]	n/a	0	1	0	n/a	n/a	0.0	0	0	0	catFR2	1	R1036M
243.418	1.6	167459	ORIENT	n/a	n/a	n/a	n/a	-999	0	2	[0, 0, 0]	n/a	0	1	0	n/a	n/a	0.0	0	0	0	catFR2	1	R1036M
246.951	1.6	169225	WORD	n/a	wordpools/wordpool_categorized_EN.txt	ROOF	Building	1	1	2	[0, 0, 0]	n/a	0	1	0	n/a	n/a	0.0	0	0	0	catFR2	1	R1036M
249.335	1.6	170417	WORD	n/a	wordpools/wordpool_categorized_EN.txt	DOOR	Building	2	1	2	[0, 0, 0]	n/a	0	1	0	n/a	n/a	0.0	0	0	0	catFR2	1	R1036M
251.697	4.6	171598	STIM_ON	n/a	n/a	n/a	n/a	-999	0	2	[0, 0, 0]	n/a	1	1	4600	LATD1	LATD2	1000.0	50	230	300	catFR2	1	R1036M
251.902	1.6	171701	WORD	n/a	wordpools/wordpool_categorized_EN.txt	CARDINAL	Birds	3	1	2	[0, 0, 0]	n/a	1	1	4600	LATD1	LATD2	1000.0	50	230	300	catFR2	1	R1036M
254.319	1.6	172909	WORD	n/a	wordpools/wordpool_categorized_EN.txt	DUCK	Birds	4	1	2	[0, 0, 0]	n/a	1	1	4600	LATD1	LATD2	1000.0	50	230	300	catFR2	1	R1036M
256.736	1.6	174118	WORD	n/a	wordpools/wordpool_categorized_EN.txt	CELLO	Instruments	5	0	2	[0, 0, 0]	n/a	0	1	0	n/a	n/a	0.0	0	0	0	catFR2	1	R1036M
259.12	1.6	175310	WORD	n/a	wordpools/wordpool_categorized_EN.txt	ORGAN	Instruments	6	1	2	[0, 0, 0]	n/a	0	1	0	n/a	n/a	0.0	0	0	0	catFR2	1	R1036M
261.357	4.6	176428	STIM_ON	n/a	n/a	n/a	n/a	-999	0	2	[0, 0, 0]	n/a	1	1	4600	LATD1	LATD2	1000.0	50	230	300	catFR2	1	R1036M
261.57	1.6	176535	WORD	n/a	wordpools/wordpool_categorized_EN.txt	BLUEBIRD	Birds	7	1	2	[0, 0, 0]	n/a	1	1	4600	LATD1	LATD2	1000.0	50	230	300	catFR2	1	R1036M
264.154	1.6	177826	WORD	n/a	wordpools/wordpool_categorized_EN.txt	HAWK	Birds	8	0	2	[0, 0, 0]	n/a	1	1	4600	LATD1	LATD2	1000.0	50	230	300	catFR2	1	R1036M
266.605	1.6	179052	WORD	n/a	wordpools/wordpool_categorized_EN.txt	ATTIC	Building	9	0	2	[0, 0, 0]	n/a	0	1	0	n/a	n/a	0.0	0	0	0	catFR2	1	R1036M
269.038	1.6	180268	WORD	n/a	wordpools/wordpool_categorized_EN.txt	CEILING	Building	10	1	2	[0, 0, 0]	n/a	0	1	0	n/a	n/a	0.0	0	0	0	catFR2	1	R1036M
271.362	4.6	181430	STIM_ON	n/a	n/a	n/a	n/a	-999	0	2	[0, 0, 0]	n/a	1	1	4600	LATD1	LATD2	1000.0	50	230	300	catFR2	1	R1036M
271.572	1.6	181535	WORD	n/a	wordpools/wordpool_categorized_EN.txt	DRUM	Instruments	11	1	2	[0, 0, 0]	n/a	1	1	4600	LATD1	LATD2	1000.0	50	230	300	catFR2	1	R1036M
274.139	1.6	182819	WORD	n/a	wordpools/wordpool_categorized_EN.txt	BASS	Instruments	12	0	2	[0, 0, 0]	n/a	1	1	4600	LATD1	LATD2	1000.0	50	230	300	catFR2	1	R1036M
275.756	0.001	183627	DISTRACT_START	n/a	n/a	n/a	n/a	-999	0	2	[0, 0, 0]	n/a	0	1	0	n/a	n/a	0.0	0	0	0	catFR2	1	R1036M
275.757	0.016	183628	START	n/a	n/a	n/a	n/a	-999	0	2	[-999, -999, -999]	n/a	0	1	0	n/a	n/a	0.0	0	0	0	catFR2	1	R1036M
275.773	8.085	183636	PROB	8.055	n/a	n/a	n/a	-999	0	2	[3, 9, 4]	16	0	1	0	n/a	n/a	0.0	0	0	0	catFR2	1	R1036M
283.858	5.718	187678	PROB	5.697	n/a	n/a	n/a	-999	0	2	[5, 2, 8]	15	0	1	0	n/a	n/a	0.0	0	0	0	catFR2	1	R1036M
289.576	4.901	190537	PROB	4.876	n/a	n/a	n/a	-999	0	2	[7, 9, 5]	19	0	1	0	n/a	n/a	0.0	0	0	0	catFR2	1	R1036M
294.477	4.23	192987	PROB	4.23	n/a	n/a	n/a	-999	0	2	[4, 2, 8]	14	0	1	0	n/a	n/a	0.0	0	0	0	catFR2	1	R1036M
298.707	0.004	195102	STOP	n/a	n/a	n/a	n/a	-999	0	2	[-999, -999, -999]	n/a	0	1	0	n/a	n/a	0.0	0	0	0	catFR2	1	R1036M
298.711	1.067	195104	DISTRACT_END	n/a	n/a	n/a	n/a	-999	0	2	[0, 0, 0]	n/a	0	1	0	n/a	n/a	0.0	0	0	0	catFR2	1	R1036M
299.778	1.485	195637	REC_START	n/a	n/a	n/a	n/a	-999	0	2	[0, 0, 0]	n/a	0	1	0	n/a	n/a	0.0	0	0	0	catFR2	1	R1036M
301.263	3.279	196380	REC_WORD	1.485	n/a	ORGAN	Instruments	6	1	2	[0, 0, 0]	n/a	0	1	0	n/a	n/a	0.0	0	0	0	catFR2	1	R1036M
304.542	2.027	198019	REC_WORD	4.764	n/a	DUCK	Birds	4	1	2	[0, 0, 0]	n/a	0	1	0	n/a	n/a	0.0	0	0	0	catFR2	1	R1036M
306.569	3.033	199033	REC_WORD	6.791	n/a	BLUEBIRD	Birds	7	1	2	[0, 0, 0]	n/a	0	1	0	n/a	n/a	0.0	0	0	0	catFR2	1	R1036M
309.602	4.164	200549	REC_WORD	9.824	n/a	CARDINAL	Birds	3	1	2	[0, 0, 0]	n/a	0	1	0	n/a	n/a	0.0	0	0	0	catFR2	1	R1036M
313.766	6.28	202631	REC_WORD	13.988	n/a	DRUM	Instruments	11	1	2	[0, 0, 0]	n/a	0	1	0	n/a	n/a	0.0	0	0	0	catFR2	1	R1036M
320.046	1.411	205771	REC_WORD	20.268	n/a	ROOF	Building	1	1	2	[0, 0, 0]	n/a	0	1	0	n/a	n/a	0.0	0	0	0	catFR2	1	R1036M
321.457	3.035	206476	REC_WORD	21.679	n/a	HOUSE	n/a	-999	0	2	[0, 0, 0]	n/a	0	1	0	n/a	n/a	0.0	0	0	0	catFR2	1	R1036M
324.492	4.966	207994	REC_WORD	24.714	n/a	CEILING	Building	10	1	2	[0, 0, 0]	n/a	0	1	0	n/a	n/a	0.0	0	0	0	catFR2	1	R1036M
329.458	0.331	210477	REC_WORD	29.68	n/a	DOOR	Building	2	1	2	[0, 0, 0]	n/a	0	1	0	n/a	n/a	0.0	0	0	0	catFR2	1	R1036M
329.789	17.048	210642	REC_END	n/a	n/a	n/a	n/a	-999	0	2	[0, 0, 0]	n/a	0	1	0	n/a	n/a	0.0	0	0	0	catFR2	1	R1036M
346.837	0.0	219166	TRIAL	n/a	n/a	n/a	n/a	-999	0	3	[0, 0, 0]	n/a	0	1	0	n/a	n/a	0.0	0	0	0	catFR2	1	R1036M
346.837	10.0	219166	COUNTDOWN_START	n/a	n/a	n/a	n/a	-999	0	3	[0, 0, 0]	n/a	0	1	0	n/a	n/a	0.0	0	0	0	catFR2	1	R1036M
357.265	0.007	224379	COUNTDOWN_END	n/a	n/a	n/a	n/a	-999	0	3	[0, 0, 0]	n/a	0	1	0	n/a	n/a	0.0	0	0	0	catFR2	1	R1036M
357.272	1.6	224383	ORIENT	n/a	n/a	n/a	n/a	-999	0	3	[0, 0, 0]	n/a	0	1	0	n/a	n/a	0.0	0	0	0	catFR2	1	R1036M
360.888	4.6	226191	STIM_ON	n/a	n/a	n/a	n/a	-999	0	3	[0, 0, 0]	n/a	1	1	4600	LATD1	LATD2	1000.0	50	230	300	catFR2	1	R1036M
361.106	1.6	226300	WORD	n/a	wordpools/wordpool_categorized_EN.txt	ELM	Trees	1	0	3	[0, 0, 0]	n/a	1	1	4600	LATD1	LATD2	1000.0	50	230	300	catFR2	1	R1036M
363.657	1.6	227575	WORD	n/a	wordpools/wordpool_categorized_EN.txt	BIRCH	Trees	2	0	3	[0, 0, 0]	n/a	1	1	4600	LATD1	LATD2	1000.0	50	230	300	catFR2	1	R1036M
366.174	1.6	228834	WORD	n/a	wordpools/wordpool_categorized_EN.txt	ELBOW	BodyParts	3	1	3	[0, 0, 0]	n/a	0	1	0	n/a	n/a	0.0	0	0	0	catFR2	1	R1036M
368.674	1.6	230084	WORD	n/a	wordpools/wordpool_categorized_EN.txt	EYE	BodyParts	4	0	3	[0, 0, 0]	n/a	0	1	0	n/a	n/a	0.0	0	0	0	catFR2	1	R1036M
370.939	4.6	231216	STIM_ON	n/a	n/a	n/a	n/a	-999	0	3	[0, 0, 0]	n/a	1	1	4600	LATD1	LATD2	1000.0	50	230	300	catFR2	1	R1036M
371.141	1.6	231317	WORD	n/a	wordpools/wordpool_categorized_EN.txt	BATHROOM	Building	5	0	3	[0, 0, 0]	n/a	1	1	4600	LATD1	LATD2	1000.0	50	230	300	catFR2	1	R1036M
373.742	1.6	232617	WORD	n/a	wordpools/wordpool_categorized_EN.txt	STAIRS	Building	6	1	3	[0, 0, 0]	n/a	1	1	4600	LATD1	LATD2	1000.0	50	230	300	catFR2	1	R1036M
376.276	1.6	233884	WORD	n/a	wordpools/wordpool_categorized_EN.txt	SPRUCE	Trees	7	0	3	[0, 0, 0]	n/a	0	1	0	n/a	n/a	0.0	0	0	0	catFR2	1	R1036M
378.793	1.6	235143	WORD	n/a	wordpools/wordpool_categorized_EN.txt	CEDAR	Trees	8	0	3	[0, 0, 0]	n/a	0	1	0	n/a	n/a	0.0	0	0	0	catFR2	1	R1036M
381.001	4.6	236247	STIM_ON	n/a	n/a	n/a	n/a	-999	0	3	[0, 0, 0]	n/a	1	1	4600	LATD1	LATD2	1000.0	50	230	300	catFR2	1	R1036M
381.21	1.6	236351	WORD	n/a	wordpools/wordpool_categorized_EN.txt	WINDOW	Building	9	0	3	[0, 0, 0]	n/a	1	1	4600	LATD1	LATD2	1000.0	50	230	300	catFR2	1	R1036M
383.711	1.6	237602	WORD	n/a	wordpools/wordpool_categorized_EN.txt	ROOM	Building	10	0	3	[0, 0, 0]	n/a	1	1	4600	LATD1	LATD2	1000.0	50	230	300	catFR2	1	R1036M
386.211	1.6	238852	WORD	n/a	wordpools/wordpool_categorized_EN.txt	FINGERS	BodyParts	11	0	3	[0, 0, 0]	n/a	0	1	0	n/a	n/a	0.0	0	0	0	catFR2	1	R1036M
388.695	1.6	240093	WORD	n/a	wordpools/wordpool_categorized_EN.txt	LEG	BodyParts	12	1	3	[0, 0, 0]	n/a	0	1	0	n/a	n/a	0.0	0	0	0	catFR2	1	R1036M
390.312	0.001	240902	DISTRACT_START	n/a	n/a	n/a	n/a	-999	0	3	[0, 0, 0]	n/a	0	1	0	n/a	n/a	0.0	0	0	0	catFR2	1	R1036M
390.313	0.016	240902	START	n/a	n/a	n/a	n/a	-999	0	3	[-999, -999, -999]	n/a	0	1	0	n/a	n/a	0.0	0	0	0	catFR2	1	R1036M
390.329	5.052	240910	PROB	5.028	n/a	n/a	n/a	-999	0	3	[8, 6, 6]	24	0	1	0	n/a	n/a	0.0	0	0	0	catFR2	1	R1036M
395.381	4.633	243436	PROB	4.607	n/a	n/a	n/a	-999	0	3	[6, 5, 6]	19	0	1	0	n/a	n/a	0.0	0	0	0	catFR2	1	R1036M
400.014	6.101	245753	PROB	6.078	n/a	n/a	n/a	-999	0	3	[6, 8, 5]	31	0	1	0	n/a	n/a	0.0	0	0	0	catFR2	1	R1036M
406.115	3.617	248803	PROB	3.593	n/a	n/a	n/a	-999	0	3	[1, 7, 1]	10	0	1	0	n/a	n/a	0.0	0	0	0	catFR2	1	R1036M
409.732	7.625	250611	PROB	7.625	n/a	n/a	n/a	-999	0	3	[5, 1, 8]	14	0	1	0	n/a	n/a	0.0	0	0	0	catFR2	1	R1036M
417.357	0.011	254424	STOP	n/a	n/a	n/a	n/a	-999	0	3	[-999, -999, -999]	n/a	0	1	0	n/a	n/a	0.0	0	0	0	catFR2	1	R1036M
417.368	1.051	254429	DISTRACT_END	n/a	n/a	n/a	n/a	-999	0	3	[0, 0, 0]	n/a	0	1	0	n/a	n/a	0.0	0	0	0	catFR2	1	R1036M
418.419	1.093	254955	REC_START	n/a	n/a	n/a	n/a	-999	0	3	[0, 0, 0]	n/a	0	1	0	n/a	n/a	0.0	0	0	0	catFR2	1	R1036M
419.512	3.52	255501	REC_WORD	1.093	n/a	STAIRS	Building	6	1	3	[0, 0, 0]	n/a	0	1	0	n/a	n/a	0.0	0	0	0	catFR2	1	R1036M
423.032	1.458	257261	REC_WORD	4.613	n/a	HOUSE	n/a	-999	0	3	[0, 0, 0]	n/a	0	1	0	n/a	n/a	0.0	0	0	0	catFR2	1	R1036M
424.49	1.903	257990	REC_WORD	6.071	n/a	ROOF	n/a	-999	0	3	[0, 0, 0]	n/a	0	1	0	n/a	n/a	0.0	0	0	0	catFR2	1	R1036M
426.393	2.638	258941	REC_WORD	7.974	n/a	ELBOW	BodyParts	3	1	3	[0, 0, 0]	n/a	0	1	0	n/a	n/a	0.0	0	0	0	catFR2	1	R1036M
429.031	3.174	260260	REC_WORD	10.612	n/a	NOSE	n/a	-999	0	3	[0, 0, 0]	n/a	0	1	0	n/a	n/a	0.0	0	0	0	catFR2	1	R1036M
432.205	6.571	261847	REC_WORD	13.786	n/a	LEG	BodyParts	12	1	3	[0, 0, 0]	n/a	0	1	0	n/a	n/a	0.0	0	0	0	catFR2	1	R1036M
438.776	4.798	265133	REC_WORD	20.357	n/a	PERCH	n/a	-999	0	3	[0, 0, 0]	n/a	0	1	0	n/a	n/a	0.0	0	0	0	catFR2	1	R1036M
443.574	4.854	267531	REC_WORD	25.155	n/a	BIRD	n/a	-999	0	3	[0, 0, 0]	n/a	0	1	0	n/a	n/a	0.0	0	0	0	catFR2	1	R1036M
448.428	19.532	269958	REC_END	n/a	n/a	n/a	n/a	-999	0	3	[0, 0, 0]	n/a	0	1	0	n/a	n/a	0.0	0	0	0	catFR2	1	R1036M
467.96	0.0	279724	TRIAL	n/a	n/a	n/a	n/a	-999	0	4	[0, 0, 0]	n/a	0	0	0	n/a	n/a	0.0	0	0	0	catFR2	1	R1036M
467.96	10.0	279724	COUNTDOWN_START	n/a	n/a	n/a	n/a	-999	0	4	[0, 0, 0]	n/a	0	0	0	n/a	n/a	0.0	0	0	0	catFR2	1	R1036M
478.388	0.009	284937	COUNTDOWN_END	n/a	n/a	n/a	n/a	-999	0	4	[0, 0, 0]	n/a	0	0	0	n/a	n/a	0.0	0	0	0	catFR2	1	R1036M
478.397	1.6	284942	ORIENT	n/a	n/a	n/a	n/a	-999	0	4	[0, 0, 0]	n/a	0	0	0	n/a	n/a	0.0	0	0	0	catFR2	1	R1036M
482.246	1.6	286866	WORD	n/a	wordpools/wordpool_categorized_EN.txt	DRESS	Clothing	1	1	4	[0, 0, 0]	n/a	0	0	0	n/a	n/a	0.0	0	0	0	catFR2	1	R1036M
484.864	1.6	288175	WORD	n/a	wordpools/wordpool_categorized_EN.txt	SHIRT	Clothing	2	1	4	[0, 0, 0]	n/a	0	0	0	n/a	n/a	0.0	0	0	0	catFR2	1	R1036M
487.448	1.6	289467	WORD	n/a	wordpools/wordpool_categorized_EN.txt	FINCH	Birds	3	0	4	[0, 0, 0]	n/a	0	0	0	n/a	n/a	0.0	0	0	0	catFR2	1	R1036M
490.031	1.6	290759	WORD	n/a	wordpools/wordpool_categorized_EN.txt	PIGEON	Birds	4	0	4	[0, 0, 0]	n/a	0	0	0	n/a	n/a	0.0	0	0	0	catFR2	1	R1036M
492.449	1.6	291968	WORD	n/a	wordpools/wordpool_categorized_EN.txt	BROCCOLI	Vegetables	5	1	4	[0, 0, 0]	n/a	0	0	0	n/a	n/a	0.0	0	0	0	catFR2	1	R1036M
494.866	1.6	293176	WORD	n/a	wordpools/wordpool_categorized_EN.txt	CELERY	Vegetables	6	1	4	[0, 0, 0]	n/a	0	0	0	n/a	n/a	0.0	0	0	0	catFR2	1	R1036M
497.384	1.6	294435	WORD	n/a	wordpools/wordpool_categorized_EN.txt	UNDERWEAR	Clothing	7	0	4	[0, 0, 0]	n/a	0	0	0	n/a	n/a	0.0	0	0	0	catFR2	1	R1036M
499.783	1.6	295634	WORD	n/a	wordpools/wordpool_categorized_EN.txt	SKIRT	Clothing	8	1	4	[0, 0, 0]	n/a	0	0	0	n/a	n/a	0.0	0	0	0	catFR2	1	R1036M
502.368	1.6	296927	WORD	n/a	wordpools/wordpool_categorized_EN.txt	CORN	Vegetables	9	0	4	[0, 0, 0]	n/a	0	0	0	n/a	n/a	0.0	0	0	0	catFR2	1	R1036M
504.901	1.6	298193	WORD	n/a	wordpools/wordpool_categorized_EN.txt	POTATO	Vegetables	10	0	4	[0, 0, 0]	n/a	0	0	0	n/a	n/a	0.0	0	0	0	catFR2	1	R1036M
507.419	1.6	299452	WORD	n/a	wordpools/wordpool_categorized_EN.txt	SPARROW	Birds	11	0	4	[0, 0, 0]	n/a	0	0	0	n/a	n/a	0.0	0	0	0	catFR2	1	R1036M
509.918	1.6	300702	WORD	n/a	wordpools/wordpool_categorized_EN.txt	SEAGULL	Birds	12	1	4	[0, 0, 0]	n/a	0	0	0	n/a	n/a	0.0	0	0	0	catFR2	1	R1036M
511.535	0.001	301510	DISTRACT_START	n/a	n/a	n/a	n/a	-999	0	4	[0, 0, 0]	n/a	0	0	0	n/a	n/a	0.0	0	0	0	catFR2	1	R1036M
511.536	0.016	301510	START	n/a	n/a	n/a	n/a	-999	0	4	[-999, -999, -999]	n/a	0	0	0	n/a	n/a	0.0	0	0	0	catFR2	1	R1036M
511.552	4.819	301518	PROB	4.789	n/a	n/a	n/a	-999	0	4	[1, 7, 1]	9	0	0	0	n/a	n/a	0.0	0	0	0	catFR2	1	R1036M
516.371	9.217	303928	PROB	9.193	n/a	n/a	n/a	-999	0	4	[5, 6, 4]	15	0	0	0	n/a	n/a	0.0	0	0	0	catFR2	1	R1036M
525.588	4.234	308536	PROB	4.2	n/a	n/a	n/a	-999	0	4	[3, 2, 4]	9	0	0	0	n/a	n/a	0.0	0	0	0	catFR2	1	R1036M
529.822	3.47	310653	PROB	3.47	n/a	n/a	n/a	-999	0	4	[5, 2, 4]	8	0	0	0	n/a	n/a	0.0	0	0	0	catFR2	1	R1036M
533.292	0.014	312388	STOP	n/a	n/a	n/a	n/a	-999	0	4	[-999, -999, -999]	n/a	0	0	0	n/a	n/a	0.0	0	0	0	catFR2	1	R1036M
533.306	1.136	312395	DISTRACT_END	n/a	n/a	n/a	n/a	-999	0	4	[0, 0, 0]	n/a	0	0	0	n/a	n/a	0.0	0	0	0	catFR2	1	R1036M
534.442	0.732	312963	REC_START	n/a	n/a	n/a	n/a	-999	0	4	[0, 0, 0]	n/a	0	0	0	n/a	n/a	0.0	0	0	0	catFR2	1	R1036M
535.174	3.165	313329	REC_WORD	0.732	n/a	SEAGULL	Birds	12	1	4	[0, 0, 0]	n/a	0	0	0	n/a	n/a	0.0	0	0	0	catFR2	1	R1036M
538.339	3.493	314911	REC_WORD	3.897	n/a	SHIRT	Clothing	2	1	4	[0, 0, 0]	n/a	0	0	0	n/a	n/a	0.0	0	0	0	catFR2	1	R1036M
541.832	2.796	316658	REC_WORD	7.39	n/a	SKIRT	Clothing	8	1	4	[0, 0, 0]	n/a	0	0	0	n/a	n/a	0.0	0	0	0	catFR2	1	R1036M
544.628	4.684	318056	REC_WORD	10.186	n/a	DRESS	Clothing	1	1	4	[0, 0, 0]	n/a	0	0	0	n/a	n/a	0.0	0	0	0	catFR2	1	R1036M
549.312	7.317	320397	REC_WORD	14.87	n/a	PANTS	n/a	-999	0	4	[0, 0, 0]	n/a	0	0	0	n/a	n/a	0.0	0	0	0	catFR2	1	R1036M
556.629	7.03	324056	REC_WORD	22.187	n/a	BROCCOLI	Vegetables	5	1	4	[0, 0, 0]	n/a	0	0	0	n/a	n/a	0.0	0	0	0	catFR2	1	R1036M
563.659	0.793	327570	REC_WORD	29.217	n/a	CELERY	Vegetables	6	1	4	[0, 0, 0]	n/a	0	0	0	n/a	n/a	0.0	0	0	0	catFR2	1	R1036M
564.452	13.779	327967	REC_END	n/a	n/a	n/a	n/a	-999	0	4	[0, 0, 0]	n/a	0	0	0	n/a	n/a	0.0	0	0	0	catFR2	1	R1036M
578.231	10.0	334856	COUNTDOWN_START	n/a	n/a	n/a	n/a	-999	0	5	[0, 0, 0]	n/a	0	1	0	n/a	n/a	0.0	0	0	0	catFR2	1	R1036M
578.232	10.427	334857	TRIAL	n/a	n/a	n/a	n/a	-999	0	5	[0, 0, 0]	n/a	0	1	0	n/a	n/a	0.0	0	0	0	catFR2	1	R1036M
588.659	0.008	340070	COUNTDOWN_END	n/a	n/a	n/a	n/a	-999	0	5	[0, 0, 0]	n/a	0	1	0	n/a	n/a	0.0	0	0	0	catFR2	1	R1036M
588.667	1.6	340074	ORIENT	n/a	n/a	n/a	n/a	-999	0	5	[0, 0, 0]	n/a	0	1	0	n/a	n/a	0.0	0	0	0	catFR2	1	R1036M
592.369	1.6	341925	WORD	n/a	wordpools/wordpool_categorized_EN.txt	EAR	BodyParts	1	0	5	[0, 0, 0]	n/a	0	1	0	n/a	n/a	0.0	0	0	0	catFR2	1	R1036M
594.968	1.6	343224	WORD	n/a	wordpools/wordpool_categorized_EN.txt	HEAD	BodyParts	2	0	5	[0, 0, 0]	n/a	0	1	0	n/a	n/a	0.0	0	0	0	catFR2	1	R1036M
597.292	4.6	344386	STIM_ON	n/a	n/a	n/a	n/a	-999	0	5	[0, 0, 0]	n/a	1	1	4600	LATD1	LATD2	1000.0	50	230	300	catFR2	1	R1036M
597.502	1.6	344491	WORD	n/a	wordpools/wordpool_categorized_EN.txt	AXE	Tools	3	0	5	[0, 0, 0]	n/a	1	1	4600	LATD1	LATD2	1000.0	50	230	300	catFR2	1	R1036M
600.069	1.6	345774	WORD	n/a	wordpools/wordpool_categorized_EN.txt	SCREWDRIVER	Tools	4	1	5	[0, 0, 0]	n/a	1	1	4600	LATD1	LATD2	1000.0	50	230	300	catFR2	1	R1036M
602.453	1.6	346966	WORD	n/a	wordpools/wordpool_categorized_EN.txt	SLINKY	Toys	5	0	5	[0, 0, 0]	n/a	0	1	0	n/a	n/a	0.0	0	0	0	catFR2	1	R1036M
604.837	1.6	348158	WORD	n/a	wordpools/wordpool_categorized_EN.txt	BALL	Toys	6	0	5	[0, 0, 0]	n/a	0	1	0	n/a	n/a	0.0	0	0	0	catFR2	1	R1036M
607.13	4.6	349305	STIM_ON	n/a	n/a	n/a	n/a	-999	0	5	[0, 0, 0]	n/a	1	1	4600	LATD1	LATD2	1000.0	50	230	300	catFR2	1	R1036M
607.338	1.6	349409	WORD	n/a	wordpools/wordpool_categorized_EN.txt	NOSE	BodyParts	7	0	5	[0, 0, 0]	n/a	1	1	4600	LATD1	LATD2	1000.0	50	230	300	catFR2	1	R1036M
609.971	1.6	350725	WORD	n/a	wordpools/wordpool_categorized_EN.txt	ARM	BodyParts	8	0	5	[0, 0, 0]	n/a	1	1	4600	LATD1	LATD2	1000.0	50	230	300	catFR2	1	R1036M
612.488	1.6	351984	WORD	n/a	wordpools/wordpool_categorized_EN.txt	DOLLHOUSE	Toys	9	1	5	[0, 0, 0]	n/a	0	1	0	n/a	n/a	0.0	0	0	0	catFR2	1	R1036M
615.055	1.6	353267	WORD	n/a	wordpools/wordpool_categorized_EN.txt	DOLL	Toys	10	1	5	[0, 0, 0]	n/a	0	1	0	n/a	n/a	0.0	0	0	0	catFR2	1	R1036M
617.382	4.6	354430	STIM_ON	n/a	n/a	n/a	n/a	-999	0	5	[0, 0, 0]	n/a	1	1	4600	LATD1	LATD2	1000.0	50	230	300	catFR2	1	R1036M
617.589	1.6	354534	WORD	n/a	wordpools/wordpool_categorized_EN.txt	WRENCH	Tools	11	1	5	[0, 0, 0]	n/a	1	1	4600	LATD1	LATD2	1000.0	50	230	300	catFR2	1	R1036M
619.989	1.6	355734	WORD	n/a	wordpools/wordpool_categorized_EN.txt	SAW	Tools	12	0	5	[0, 0, 0]	n/a	1	1	4600	LATD1	LATD2	1000.0	50	230	300	catFR2	1	R1036M
621.607	0.001	356543	DISTRACT_START	n/a	n/a	n/a	n/a	-999	0	5	[0, 0, 0]	n/a	0	1	0	n/a	n/a	0.0	0	0	0	catFR2	1	R1036M
621.608	0.015	356543	START	n/a	n/a	n/a	n/a	-999	0	5	[-999, -999, -999]	n/a	0	1	0	n/a	n/a	0.0	0	0	0	catFR2	1	R1036M
621.623	6.202	356551	PROB	6.173	n/a	n/a	n/a	-999	0	5	[2, 5, 8]	30	0	1	0	n/a	n/a	0.0	0	0	0	catFR2	1	R1036M
627.825	3.867	359652	PROB	3.843	n/a	n/a	n/a	-999	0	5	[1, 7, 7]	15	0	1	0	n/a	n/a	0.0	0	0	0	catFR2	1	R1036M
631.692	4.601	361585	PROB	4.568	n/a	n/a	n/a	-999	0	5	[2, 1, 7]	10	0	1	0	n/a	n/a	0.0	0	0	0	catFR2	1	R1036M
636.293	8.847	363885	PROB	8.847	n/a	n/a	n/a	-999	0	5	[4, 7, 5]	18	0	1	0	n/a	n/a	0.0	0	0	0	catFR2	1	R1036M
645.14	0.004	368309	STOP	n/a	n/a	n/a	n/a	-999	0	5	[-999, -999, -999]	n/a	0	1	0	n/a	n/a	0.0	0	0	0	catFR2	1	R1036M
645.144	1.219	368311	DISTRACT_END	n/a	n/a	n/a	n/a	-999	0	5	[0, 0, 0]	n/a	0	1	0	n/a	n/a	0.0	0	0	0	catFR2	1	R1036M
646.363	0.54	368920	REC_START	n/a	n/a	n/a	n/a	-999	0	5	[0, 0, 0]	n/a	0	1	0	n/a	n/a	0.0	0	0	0	catFR2	1	R1036M
646.903	1.791	369190	REC_WORD	0.54	n/a	DOLL	Toys	10	1	5	[0, 0, 0]	n/a	0	1	0	n/a	n/a	0.0	0	0	0	catFR2	1	R1036M
648.694	2.708	370086	REC_WORD	2.331	n/a	DOLLHOUSE	Toys	9	1	5	[0, 0, 0]	n/a	0	1	0	n/a	n/a	0.0	0	0	0	catFR2	1	R1036M
651.402	3.405	371440	REC_WORD	5.039	n/a	WRENCH	Tools	11	1	5	[0, 0, 0]	n/a	0	1	0	n/a	n/a	0.0	0	0	0	catFR2	1	R1036M
654.807	8.332	373142	REC_WORD	8.444	n/a	SCREWDRIVER	Tools	4	1	5	[0, 0, 0]	n/a	0	1	0	n/a	n/a	0.0	0	0	0	catFR2	1	R1036M
663.139	13.237	377308	REC_WORD	16.776	n/a	RACKET	n/a	-999	0	5	[0, 0, 0]	n/a	0	1	0	n/a	n/a	0.0	0	0	0	catFR2	1	R1036M
676.376	24.746	383926	REC_END	n/a	n/a	n/a	n/a	-999	0	5	[0, 0, 0]	n/a	0	1	0	n/a	n/a	0.0	0	0	0	catFR2	1	R1036M
701.122	10.0	396298	COUNTDOWN_START	n/a	n/a	n/a	n/a	-999	0	6	[0, 0, 0]	n/a	0	1	0	n/a	n/a	0.0	0	0	0	catFR2	1	R1036M
701.122	10.428	396298	TRIAL	n/a	n/a	n/a	n/a	-999	0	6	[0, 0, 0]	n/a	0	1	0	n/a	n/a	0.0	0	0	0	catFR2	1	R1036M
711.55	0.008	401512	COUNTDOWN_END	n/a	n/a	n/a	n/a	-999	0	6	[0, 0, 0]	n/a	0	1	0	n/a	n/a	0.0	0	0	0	catFR2	1	R1036M
711.558	1.6	401516	ORIENT	n/a	n/a	n/a	n/a	-999	0	6	[0, 0, 0]	n/a	0	1	0	n/a	n/a	0.0	0	0	0	catFR2	1	R1036M
715.208	1.6	403341	WORD	n/a	wordpools/wordpool_categorized_EN.txt	MILK	Beverages	1	1	6	[0, 0, 0]	n/a	0	1	0	n/a	n/a	0.0	0	0	0	catFR2	1	R1036M
717.609	1.6	404541	WORD	n/a	wordpools/wordpool_categorized_EN.txt	BEER	Beverages	2	1	6	[0, 0, 0]	n/a	0	1	0	n/a	n/a	0.0	0	0	0	catFR2	1	R1036M
719.989	4.6	405731	STIM_ON	n/a	n/a	n/a	n/a	-999	0	6	[0, 0, 0]	n/a	1	1	4600	LATD1	LATD2	1000.0	50	230	300	catFR2	1	R1036M
720.192	1.6	405833	WORD	n/a	wordpools/wordpool_categorized_EN.txt	RAIN	Weather	3	0	6	[0, 0, 0]	n/a	1	1	4600	LATD1	LATD2	1000.0	50	230	300	catFR2	1	R1036M
722.576	1.6	407024	WORD	n/a	wordpools/wordpool_categorized_EN.txt	TORNADO	Weather	4	0	6	[0, 0, 0]	n/a	1	1	4600	LATD1	LATD2	1000.0	50	230	300	catFR2	1	R1036M
725.093	1.6	408283	WORD	n/a	wordpools/wordpool_categorized_EN.txt	GIRAFFE	Zoo	5	0	6	[0, 0, 0]	n/a	0	1	0	n/a	n/a	0.0	0	0	0	catFR2	1	R1036M
727.694	1.6	409583	WORD	n/a	wordpools/wordpool_categorized_EN.txt	MONKEY	Zoo	6	0	6	[0, 0, 0]	n/a	0	1	0	n/a	n/a	0.0	0	0	0	catFR2	1	R1036M
730.046	4.6	410759	STIM_ON	n/a	n/a	n/a	n/a	-999	0	6	[0, 0, 0]	n/a	1	1	4600	LATD1	LATD2	1000.0	50	230	300	catFR2	1	R1036M
730.261	1.6	410867	WORD	n/a	wordpools/wordpool_categorized_EN.txt	WIND	Weather	7	0	6	[0, 0, 0]	n/a	1	1	4600	LATD1	LATD2	1000.0	50	230	300	catFR2	1	R1036M
732.761	1.6	412117	WORD	n/a	wordpools/wordpool_categorized_EN.txt	HURRICANE	Weather	8	0	6	[0, 0, 0]	n/a	1	1	4600	LATD1	LATD2	1000.0	50	230	300	catFR2	1	R1036M
735.363	1.6	413418	WORD	n/a	wordpools/wordpool_categorized_EN.txt	WINE	Beverages	9	1	6	[0, 0, 0]	n/a	0	1	0	n/a	n/a	0.0	0	0	0	catFR2	1	R1036M
737.913	1.6	414693	WORD	n/a	wordpools/wordpool_categorized_EN.txt	TEA	Beverages	10	1	6	[0, 0, 0]	n/a	0	1	0	n/a	n/a	0.0	0	0	0	catFR2	1	R1036M
740.176	4.6	415824	STIM_ON	n/a	n/a	n/a	n/a	-999	0	6	[0, 0, 0]	n/a	1	1	4600	LATD1	LATD2	1000.0	50	230	300	catFR2	1	R1036M
740.381	1.6	415926	WORD	n/a	wordpools/wordpool_categorized_EN.txt	GORILLA	Zoo	11	1	6	[0, 0, 0]	n/a	1	1	4600	LATD1	LATD2	1000.0	50	230	300	catFR2	1	R1036M
742.847	1.6	417159	WORD	n/a	wordpools/wordpool_categorized_EN.txt	TIGER	Zoo	12	0	6	[0, 0, 0]	n/a	1	1	4600	LATD1	LATD2	1000.0	50	230	300	catFR2	1	R1036M
744.464	0.001	417968	DISTRACT_START	n/a	n/a	n/a	n/a	-999	0	6	[0, 0, 0]	n/a	0	1	0	n/a	n/a	0.0	0	0	0	catFR2	1	R1036M
744.465	0.015	417968	START	n/a	n/a	n/a	n/a	-999	0	6	[-999, -999, -999]	n/a	0	1	0	n/a	n/a	0.0	0	0	0	catFR2	1	R1036M
744.48	6.418	417976	PROB	6.395	n/a	n/a	n/a	-999	0	6	[6, 6, 8]	24	0	1	0	n/a	n/a	0.0	0	0	0	catFR2	1	R1036M
750.898	6.652	421185	PROB	6.626	n/a	n/a	n/a	-999	0	6	[7, 5, 2]	14	0	1	0	n/a	n/a	0.0	0	0	0	catFR2	1	R1036M
757.55	7.07	424511	PROB	7.07	n/a	n/a	n/a	-999	0	6	[6, 4, 1]	11	0	1	0	n/a	n/a	0.0	0	0	0	catFR2	1	R1036M
764.62	0.014	428045	STOP	n/a	n/a	n/a	n/a	-999	0	6	[-999, -999, -999]	n/a	0	1	0	n/a	n/a	0.0	0	0	0	catFR2	1	R1036M
764.634	1.084	428052	DISTRACT_END	n/a	n/a	n/a	n/a	-999	0	6	[0, 0, 0]	n/a	0	1	0	n/a	n/a	0.0	0	0	0	catFR2	1	R1036M
765.718	0.86	428594	REC_START	n/a	n/a	n/a	n/a	-999	0	6	[0, 0, 0]	n/a	0	1	0	n/a	n/a	0.0	0	0	0	catFR2	1	R1036M
766.578	2.195	429024	REC_WORD	0.86	n/a	GORILLA	Zoo	11	1	6	[0, 0, 0]	n/a	0	1	0	n/a	n/a	0.0	0	0	0	catFR2	1	R1036M
768.773	1.38	430122	REC_WORD	3.055	n/a	BEER	Beverages	2	1	6	[0, 0, 0]	n/a	0	1	0	n/a	n/a	0.0	0	0	0	catFR2	1	R1036M
770.153	1.65	430812	REC_WORD	4.435	n/a	MILK	Beverages	1	1	6	[0, 0, 0]	n/a	0	1	0	n/a	n/a	0.0	0	0	0	catFR2	1	R1036M
771.803	2.854	431637	REC_WORD	6.085	n/a	WINE	Beverages	9	1	6	[0, 0, 0]	n/a	0	1	0	n/a	n/a	0.0	0	0	0	catFR2	1	R1036M
774.657	2.002	433064	REC_WORD	8.939	n/a	COLA	n/a	-999	0	6	[0, 0, 0]	n/a	0	1	0	n/a	n/a	0.0	0	0	0	catFR2	1	R1036M
776.659	19.069	434064	REC_WORD	10.941	n/a	TEA	Beverages	10	1	6	[0, 0, 0]	n/a	0	1	0	n/a	n/a	0.0	0	0	0	catFR2	1	R1036M
795.728	27.134	443598	REC_END	n/a	n/a	n/a	n/a	-999	0	6	[0, 0, 0]	n/a	0	1	0	n/a	n/a	0.0	0	0	0	catFR2	1	R1036M
822.862	10.0	457165	COUNTDOWN_START	n/a	n/a	n/a	n/a	-999	0	7	[0, 0, 0]	n/a	0	1	0	n/a	n/a	0.0	0	0	0	catFR2	1	R1036M
822.863	10.427	457165	TRIAL	n/a	n/a	n/a	n/a	-999	0	7	[0, 0, 0]	n/a	0	1	0	n/a	n/a	0.0	0	0	0	catFR2	1	R1036M
833.29	0.008	462378	COUNTDOWN_END	n/a	n/a	n/a	n/a	-999	0	7	[0, 0, 0]	n/a	0	1	0	n/a	n/a	0.0	0	0	0	catFR2	1	R1036M
833.298	1.6	462382	ORIENT	n/a	n/a	n/a	n/a	-999	0	7	[0, 0, 0]	n/a	0	1	0	n/a	n/a	0.0	0	0	0	catFR2	1	R1036M
837.248	1.6	464357	WORD	n/a	wordpools/wordpool_categorized_EN.txt	WALL	Building	1	0	7	[0, 0, 0]	n/a	0	1	0	n/a	n/a	0.0	0	0	0	catFR2	1	R1036M
839.632	1.6	465549	WORD	n/a	wordpools/wordpool_categorized_EN.txt	FLOOR	Building	2	0	7	[0, 0, 0]	n/a	0	1	0	n/a	n/a	0.0	0	0	0	catFR2	1	R1036M
841.867	4.6	466667	STIM_ON	n/a	n/a	n/a	n/a	-999	0	7	[0, 0, 0]	n/a	1	1	4600	LATD1	LATD2	1000.0	50	230	300	catFR2	1	R1036M
842.083	1.6	466775	WORD	n/a	wordpools/wordpool_categorized_EN.txt	PEAR	Fruit	3	0	7	[0, 0, 0]	n/a	1	1	4600	LATD1	LATD2	1000.0	50	230	300	catFR2	1	R1036M
844.483	1.6	467975	WORD	n/a	wordpools/wordpool_categorized_EN.txt	BLUEBERRY	Fruit	4	0	7	[0, 0, 0]	n/a	1	1	4600	LATD1	LATD2	1000.0	50	230	300	catFR2	1	R1036M
847.0	1.6	469233	WORD	n/a	wordpools/wordpool_categorized_EN.txt	RATCHET	Tools	5	1	7	[0, 0, 0]	n/a	0	1	0	n/a	n/a	0.0	0	0	0	catFR2	1	R1036M
849.501	1.6	470483	WORD	n/a	wordpools/wordpool_categorized_EN.txt	PLIERS	Tools	6	0	7	[0, 0, 0]	n/a	0	1	0	n/a	n/a	0.0	0	0	0	catFR2	1	R1036M
851.863	4.6	471664	STIM_ON	n/a	n/a	n/a	n/a	-999	0	7	[0, 0, 0]	n/a	1	1	4600	LATD1	LATD2	1000.0	50	230	300	catFR2	1	R1036M
852.068	1.6	471767	WORD	n/a	wordpools/wordpool_categorized_EN.txt	HALLWAY	Building	7	1	7	[0, 0, 0]	n/a	1	1	4600	LATD1	LATD2	1000.0	50	230	300	catFR2	1	R1036M
854.685	1.6	473075	WORD	n/a	wordpools/wordpool_categorized_EN.txt	FOUNDATION	Building	8	0	7	[0, 0, 0]	n/a	1	1	4600	LATD1	LATD2	1000.0	50	230	300	catFR2	1	R1036M
857.252	1.6	474359	WORD	n/a	wordpools/wordpool_categorized_EN.txt	DRILL	Tools	9	0	7	[0, 0, 0]	n/a	0	1	0	n/a	n/a	0.0	0	0	0	catFR2	1	R1036M
859.853	1.6	475659	WORD	n/a	wordpools/wordpool_categorized_EN.txt	SHOVEL	Tools	10	0	7	[0, 0, 0]	n/a	0	1	0	n/a	n/a	0.0	0	0	0	catFR2	1	R1036M
862.07	4.6	476768	STIM_ON	n/a	n/a	n/a	n/a	-999	0	7	[0, 0, 0]	n/a	1	1	4600	LATD1	LATD2	1000.0	50	230	300	catFR2	1	R1036M
862.287	1.6	476876	WORD	n/a	wordpools/wordpool_categorized_EN.txt	LIME	Fruit	11	0	7	[0, 0, 0]	n/a	1	1	4600	LATD1	LATD2	1000.0	50	230	300	catFR2	1	R1036M
864.704	1.6	478084	WORD	n/a	wordpools/wordpool_categorized_EN.txt	APPLE	Fruit	12	0	7	[0, 0, 0]	n/a	1	1	4600	LATD1	LATD2	1000.0	50	230	300	catFR2	1	R1036M
866.321	0.001	478893	DISTRACT_START	n/a	n/a	n/a	n/a	-999	0	7	[0, 0, 0]	n/a	0	1	0	n/a	n/a	0.0	0	0	0	catFR2	1	R1036M
866.322	0.016	478893	START	n/a	n/a	n/a	n/a	-999	0	7	[-999, -999, -999]	n/a	0	1	0	n/a	n/a	0.0	0	0	0	catFR2	1	R1036M
866.338	6.867	478901	PROB	6.842	n/a	n/a	n/a	-999	0	7	[7, 7, 9]	21	0	1	0	n/a	n/a	0.0	0	0	0	catFR2	1	R1036M
873.205	4.868	482335	PROB	4.847	n/a	n/a	n/a	-999	0	7	[7, 6, 1]	14	0	1	0	n/a	n/a	0.0	0	0	0	catFR2	1	R1036M
878.073	5.535	484769	PROB	5.499	n/a	n/a	n/a	-999	0	7	[2, 2, 9]	13	0	1	0	n/a	n/a	0.0	0	0	0	catFR2	1	R1036M
883.608	5.132	487536	PROB	5.132	n/a	n/a	n/a	-999	0	7	[9, 3, 9]	21	0	1	0	n/a	n/a	0.0	0	0	0	catFR2	1	R1036M
888.74	0.018	490102	STOP	n/a	n/a	n/a	n/a	-999	0	7	[-999, -999, -999]	n/a	0	1	0	n/a	n/a	0.0	0	0	0	catFR2	1	R1036M
888.758	1.168	490111	DISTRACT_END	n/a	n/a	n/a	n/a	-999	0	7	[0, 0, 0]	n/a	0	1	0	n/a	n/a	0.0	0	0	0	catFR2	1	R1036M
889.926	2.275	490695	REC_START	n/a	n/a	n/a	n/a	-999	0	7	[0, 0, 0]	n/a	0	1	0	n/a	n/a	0.0	0	0	0	catFR2	1	R1036M
892.201	3.615	491832	REC_WORD	2.275	n/a	HALLWAY	Building	7	1	7	[0, 0, 0]	n/a	0	1	0	n/a	n/a	0.0	0	0	0	catFR2	1	R1036M
895.816	1.511	493640	REC_WORD	5.89	n/a	HOUSE	n/a	-999	0	7	[0, 0, 0]	n/a	0	1	0	n/a	n/a	0.0	0	0	0	catFR2	1	R1036M
897.327	3.846	494395	REC_WORD	7.401	n/a	STAIRS	n/a	-999	0	7	[0, 0, 0]	n/a	0	1	0	n/a	n/a	0.0	0	0	0	catFR2	1	R1036M
901.173	2.988	496318	REC_WORD	11.247	n/a	CLIMB	n/a	-999	0	7	[0, 0, 0]	n/a	0	1	0	n/a	n/a	0.0	0	0	0	catFR2	1	R1036M
904.161	4.229	497812	REC_WORD	14.235	n/a	GORILLA	n/a	-999	0	7	[0, 0, 0]	n/a	0	1	0	n/a	n/a	0.0	0	0	0	catFR2	1	R1036M
908.39	11.546	499926	REC_WORD	18.464	n/a	RATCHET	Tools	5	1	7	[0, 0, 0]	n/a	0	1	0	n/a	n/a	0.0	0	0	0	catFR2	1	R1036M
919.936	54.423	505699	REC_END	n/a	n/a	n/a	n/a	-999	0	7	[0, 0, 0]	n/a	0	1	0	n/a	n/a	0.0	0	0	0	catFR2	1	R1036M
974.359	10.0	532909	COUNTDOWN_START	n/a	n/a	n/a	n/a	-999	0	8	[0, 0, 0]	n/a	0	1	0	n/a	n/a	0.0	0	0	0	catFR2	1	R1036M
974.36	10.427	532909	TRIAL	n/a	n/a	n/a	n/a	-999	0	8	[0, 0, 0]	n/a	0	1	0	n/a	n/a	0.0	0	0	0	catFR2	1	R1036M
984.787	0.007	538123	COUNTDOWN_END	n/a	n/a	n/a	n/a	-999	0	8	[0, 0, 0]	n/a	0	1	0	n/a	n/a	0.0	0	0	0	catFR2	1	R1036M
984.794	1.6	538126	ORIENT	n/a	n/a	n/a	n/a	-999	0	8	[0, 0, 0]	n/a	0	1	0	n/a	n/a	0.0	0	0	0	catFR2	1	R1036M
988.516	4.6	539987	STIM_ON	n/a	n/a	n/a	n/a	-999	0	8	[0, 0, 0]	n/a	1	1	4600	LATD1	LATD2	1000.0	50	230	300	catFR2	1	R1036M
988.728	1.6	540093	WORD	n/a	wordpools/wordpool_categorized_EN.txt	LAKE	Landscapes	1	1	8	[0, 0, 0]	n/a	1	1	4600	LATD1	LATD2	1000.0	50	230	300	catFR2	1	R1036M
991.328	1.6	541393	WORD	n/a	wordpools/wordpool_categorized_EN.txt	STREAM	Landscapes	2	1	8	[0, 0, 0]	n/a	1	1	4600	LATD1	LATD2	1000.0	50	230	300	catFR2	1	R1036M
993.879	1.6	542668	WORD	n/a	wordpools/wordpool_categorized_EN.txt	TOASTER	Appliances	3	0	8	[0, 0, 0]	n/a	0	1	0	n/a	n/a	0.0	0	0	0	catFR2	1	R1036M
996.397	1.6	543927	WORD	n/a	wordpools/wordpool_categorized_EN.txt	DISHWASHER	Appliances	4	0	8	[0, 0, 0]	n/a	0	1	0	n/a	n/a	0.0	0	0	0	catFR2	1	R1036M
998.73	4.6	545094	STIM_ON	n/a	n/a	n/a	n/a	-999	0	8	[0, 0, 0]	n/a	1	1	4600	LATD1	LATD2	1000.0	50	230	300	catFR2	1	R1036M
998.947	1.6	545202	WORD	n/a	wordpools/wordpool_categorized_EN.txt	CIDER	Beverages	5	1	8	[0, 0, 0]	n/a	1	1	4600	LATD1	LATD2	1000.0	50	230	300	catFR2	1	R1036M
1001.497	1.6	546477	WORD	n/a	wordpools/wordpool_categorized_EN.txt	COFFEE	Beverages	6	0	8	[0, 0, 0]	n/a	1	1	4600	LATD1	LATD2	1000.0	50	230	300	catFR2	1	R1036M
1003.931	1.6	547694	WORD	n/a	wordpools/wordpool_categorized_EN.txt	DRYER	Appliances	7	0	8	[0, 0, 0]	n/a	0	1	0	n/a	n/a	0.0	0	0	0	catFR2	1	R1036M
1006.465	1.6	548961	WORD	n/a	wordpools/wordpool_categorized_EN.txt	MIXER	Appliances	8	0	8	[0, 0, 0]	n/a	0	1	0	n/a	n/a	0.0	0	0	0	catFR2	1	R1036M
1008.805	4.6	550131	STIM_ON	n/a	n/a	n/a	n/a	-999	0	8	[0, 0, 0]	n/a	1	1	4600	LATD1	LATD2	1000.0	50	230	300	catFR2	1	R1036M
1009.015	1.6	550236	WORD	n/a	wordpools/wordpool_categorized_EN.txt	RIVER	Landscapes	9	1	8	[0, 0, 0]	n/a	1	1	4600	LATD1	LATD2	1000.0	50	230	300	catFR2	1	R1036M
1011.549	1.6	551503	WORD	n/a	wordpools/wordpool_categorized_EN.txt	MOUNTAIN	Landscapes	10	0	8	[0, 0, 0]	n/a	1	1	4600	LATD1	LATD2	1000.0	50	230	300	catFR2	1	R1036M
1014.149	1.6	552803	WORD	n/a	wordpools/wordpool_categorized_EN.txt	RUM	Beverages	11	0	8	[0, 0, 0]	n/a	0	1	0	n/a	n/a	0.0	0	0	0	catFR2	1	R1036M
1016.733	1.6	554095	WORD	n/a	wordpools/wordpool_categorized_EN.txt	WATER	Beverages	12	1	8	[0, 0, 0]	n/a	0	1	0	n/a	n/a	0.0	0	0	0	catFR2	1	R1036M
1018.351	0.001	554904	DISTRACT_START	n/a	n/a	n/a	n/a	-999	0	8	[0, 0, 0]	n/a	0	1	0	n/a	n/a	0.0	0	0	0	catFR2	1	R1036M
1018.352	0.016	554904	START	n/a	n/a	n/a	n/a	-999	0	8	[-999, -999, -999]	n/a	0	1	0	n/a	n/a	0.0	0	0	0	catFR2	1	R1036M
1018.368	5.6	554912	PROB	5.572	n/a	n/a	n/a	-999	0	8	[1, 8, 9]	18	0	1	0	n/a	n/a	0.0	0	0	0	catFR2	1	R1036M
1023.968	6.985	557712	PROB	6.956	n/a	n/a	n/a	-999	0	8	[3, 5, 8]	16	0	1	0	n/a	n/a	0.0	0	0	0	catFR2	1	R1036M
1030.953	7.134	561204	PROB	7.099	n/a	n/a	n/a	-999	0	8	[4, 6, 8]	18	0	1	0	n/a	n/a	0.0	0	0	0	catFR2	1	R1036M
1038.087	8.484	564771	PROB	8.484	n/a	n/a	n/a	-999	0	8	[5, 3, 4]	12	0	1	0	n/a	n/a	0.0	0	0	0	catFR2	1	R1036M
1046.571	0.018	569013	STOP	n/a	n/a	n/a	n/a	-999	0	8	[-999, -999, -999]	n/a	0	1	0	n/a	n/a	0.0	0	0	0	catFR2	1	R1036M
1046.589	1.051	569022	DISTRACT_END	n/a	n/a	n/a	n/a	-999	0	8	[0, 0, 0]	n/a	0	1	0	n/a	n/a	0.0	0	0	0	catFR2	1	R1036M
1047.64	2.751	569547	REC_START	n/a	n/a	n/a	n/a	-999	0	8	[0, 0, 0]	n/a	0	1	0	n/a	n/a	0.0	0	0	0	catFR2	1	R1036M
1050.391	2.239	570923	REC_WORD	2.751	n/a	WATER	Beverages	12	1	8	[0, 0, 0]	n/a	0	1	0	n/a	n/a	0.0	0	0	0	catFR2	1	R1036M
1052.63	2.087	572042	REC_WORD	4.99	n/a	STREAM	Landscapes	2	1	8	[0, 0, 0]	n/a	0	1	0	n/a	n/a	0.0	0	0	0	catFR2	1	R1036M
1054.717	2.984	573086	REC_WORD	7.077	n/a	RIVER	Landscapes	9	1	8	[0, 0, 0]	n/a	0	1	0	n/a	n/a	0.0	0	0	0	catFR2	1	R1036M
1057.701	7.436	574578	REC_WORD	10.061	n/a	LAKE	Landscapes	1	1	8	[0, 0, 0]	n/a	0	1	0	n/a	n/a	0.0	0	0	0	catFR2	1	R1036M
1065.137	6.442	578295	REC_WORD	17.497	n/a	CREEK	n/a	-999	0	8	[0, 0, 0]	n/a	0	1	0	n/a	n/a	0.0	0	0	0	catFR2	1	R1036M
1071.579	4.548	581516	REC_WORD	23.939	n/a	RIVER	Landscapes	9	1	8	[0, 0, 0]	n/a	0	1	0	n/a	n/a	0.0	0	0	0	catFR2	1	R1036M
1076.127	1.524	583790	REC_WORD	28.487	n/a	CIDER	Beverages	5	1	8	[0, 0, 0]	n/a	0	1	0	n/a	n/a	0.0	0	0	0	catFR2	1	R1036M
1077.651	15.014	584552	REC_END	n/a	n/a	n/a	n/a	-999	0	8	[0, 0, 0]	n/a	0	1	0	n/a	n/a	0.0	0	0	0	catFR2	1	R1036M
1092.665	0.0	592059	TRIAL	n/a	n/a	n/a	n/a	-999	0	9	[0, 0, 0]	n/a	0	0	0	n/a	n/a	0.0	0	0	0	catFR2	1	R1036M
1092.665	10.0	592059	COUNTDOWN_START	n/a	n/a	n/a	n/a	-999	0	9	[0, 0, 0]	n/a	0	0	0	n/a	n/a	0.0	0	0	0	catFR2	1	R1036M
1103.093	0.007	597272	COUNTDOWN_END	n/a	n/a	n/a	n/a	-999	0	9	[0, 0, 0]	n/a	0	0	0	n/a	n/a	0.0	0	0	0	catFR2	1	R1036M
1103.1	1.6	597276	ORIENT	n/a	n/a	n/a	n/a	-999	0	9	[0, 0, 0]	n/a	0	0	0	n/a	n/a	0.0	0	0	0	catFR2	1	R1036M
1106.751	1.6	599101	WORD	n/a	wordpools/wordpool_categorized_EN.txt	LAMB	FarmAnimals	1	0	9	[0, 0, 0]	n/a	0	0	0	n/a	n/a	0.0	0	0	0	catFR2	1	R1036M
1109.251	1.6	600351	WORD	n/a	wordpools/wordpool_categorized_EN.txt	GOAT	FarmAnimals	2	1	9	[0, 0, 0]	n/a	0	0	0	n/a	n/a	0.0	0	0	0	catFR2	1	R1036M
1111.652	1.6	601551	WORD	n/a	wordpools/wordpool_categorized_EN.txt	JEANS	Clothing	3	0	9	[0, 0, 0]	n/a	0	0	0	n/a	n/a	0.0	0	0	0	catFR2	1	R1036M
1114.269	1.6	602860	WORD	n/a	wordpools/wordpool_categorized_EN.txt	SHORTS	Clothing	4	0	9	[0, 0, 0]	n/a	0	0	0	n/a	n/a	0.0	0	0	0	catFR2	1	R1036M
1116.836	1.6	604143	WORD	n/a	wordpools/wordpool_categorized_EN.txt	CALCULATOR	Electronics	5	0	9	[0, 0, 0]	n/a	0	0	0	n/a	n/a	0.0	0	0	0	catFR2	1	R1036M
1119.453	1.6	605452	WORD	n/a	wordpools/wordpool_categorized_EN.txt	SCANNER	Electronics	6	1	9	[0, 0, 0]	n/a	0	0	0	n/a	n/a	0.0	0	0	0	catFR2	1	R1036M
1121.92	1.6	606685	WORD	n/a	wordpools/wordpool_categorized_EN.txt	TURKEY	FarmAnimals	7	1	9	[0, 0, 0]	n/a	0	0	0	n/a	n/a	0.0	0	0	0	catFR2	1	R1036M
1124.405	1.6	607928	WORD	n/a	wordpools/wordpool_categorized_EN.txt	PIG	FarmAnimals	8	1	9	[0, 0, 0]	n/a	0	0	0	n/a	n/a	0.0	0	0	0	catFR2	1	R1036M
1126.921	1.6	609186	WORD	n/a	wordpools/wordpool_categorized_EN.txt	HEADPHONES	Electronics	9	0	9	[0, 0, 0]	n/a	0	0	0	n/a	n/a	0.0	0	0	0	catFR2	1	R1036M
1129.455	1.6	610452	WORD	n/a	wordpools/wordpool_categorized_EN.txt	COMPUTER	Electronics	10	1	9	[0, 0, 0]	n/a	0	0	0	n/a	n/a	0.0	0	0	0	catFR2	1	R1036M
1131.972	1.6	611711	WORD	n/a	wordpools/wordpool_categorized_EN.txt	PANTS	Clothing	11	1	9	[0, 0, 0]	n/a	0	0	0	n/a	n/a	0.0	0	0	0	catFR2	1	R1036M
1134.39	1.6	612920	WORD	n/a	wordpools/wordpool_categorized_EN.txt	SOCKS	Clothing	12	0	9	[0, 0, 0]	n/a	0	0	0	n/a	n/a	0.0	0	0	0	catFR2	1	R1036M
1136.006	0.001	613728	DISTRACT_START	n/a	n/a	n/a	n/a	-999	0	9	[0, 0, 0]	n/a	0	0	0	n/a	n/a	0.0	0	0	0	catFR2	1	R1036M
1136.007	0.016	613728	START	n/a	n/a	n/a	n/a	-999	0	9	[-999, -999, -999]	n/a	0	0	0	n/a	n/a	0.0	0	0	0	catFR2	1	R1036M
1136.023	7.785	613736	PROB	7.749	n/a	n/a	n/a	-999	0	9	[4, 1, 8]	13	0	0	0	n/a	n/a	0.0	0	0	0	catFR2	1	R1036M
1143.808	5.084	617629	PROB	5.059	n/a	n/a	n/a	-999	0	9	[4, 2, 4]	16	0	0	0	n/a	n/a	0.0	0	0	0	catFR2	1	R1036M
1148.892	8.304	620170	PROB	8.304	n/a	n/a	n/a	-999	0	9	[3, 4, 5]	12	0	0	0	n/a	n/a	0.0	0	0	0	catFR2	1	R1036M
1157.196	0.014	624322	STOP	n/a	n/a	n/a	n/a	-999	0	9	[-999, -999, -999]	n/a	0	0	0	n/a	n/a	0.0	0	0	0	catFR2	1	R1036M
1157.21	1.085	624329	DISTRACT_END	n/a	n/a	n/a	n/a	-999	0	9	[0, 0, 0]	n/a	0	0	0	n/a	n/a	0.0	0	0	0	catFR2	1	R1036M
1158.295	0.623	624872	REC_START	n/a	n/a	n/a	n/a	-999	0	9	[0, 0, 0]	n/a	0	0	0	n/a	n/a	0.0	0	0	0	catFR2	1	R1036M
1158.918	1.715	625183	REC_WORD	0.623	n/a	COMPUTER	Electronics	10	1	9	[0, 0, 0]	n/a	0	0	0	n/a	n/a	0.0	0	0	0	catFR2	1	R1036M
1160.633	2.361	626041	REC_WORD	2.338	n/a	SCANNER	Electronics	6	1	9	[0, 0, 0]	n/a	0	0	0	n/a	n/a	0.0	0	0	0	catFR2	1	R1036M
1162.994	1.873	627221	REC_WORD	4.699	n/a	PANTS	Clothing	11	1	9	[0, 0, 0]	n/a	0	0	0	n/a	n/a	0.0	0	0	0	catFR2	1	R1036M
1164.867	3.446	628157	REC_WORD	6.572	n/a	SHIRT	n/a	-999	0	9	[0, 0, 0]	n/a	0	0	0	n/a	n/a	0.0	0	0	0	catFR2	1	R1036M
1168.313	2.98	629880	REC_WORD	10.018	n/a	PIG	FarmAnimals	8	1	9	[0, 0, 0]	n/a	0	0	0	n/a	n/a	0.0	0	0	0	catFR2	1	R1036M
1171.293	9.533	631370	REC_WORD	12.998	n/a	GOAT	FarmAnimals	2	1	9	[0, 0, 0]	n/a	0	0	0	n/a	n/a	0.0	0	0	0	catFR2	1	R1036M
1180.826	3.07	636137	REC_WORD	22.531	n/a	COW	n/a	-999	0	9	[0, 0, 0]	n/a	0	0	0	n/a	n/a	0.0	0	0	0	catFR2	1	R1036M
1183.896	4.408	637671	REC_WORD	25.601	n/a	TURKEY	FarmAnimals	7	1	9	[0, 0, 0]	n/a	0	0	0	n/a	n/a	0.0	0	0	0	catFR2	1	R1036M
1188.304	24.234	639875	REC_END	n/a	n/a	n/a	n/a	-999	0	9	[0, 0, 0]	n/a	0	0	0	n/a	n/a	0.0	0	0	0	catFR2	1	R1036M
1212.538	0.0	651992	TRIAL	n/a	n/a	n/a	n/a	-999	0	10	[0, 0, 0]	n/a	0	0	0	n/a	n/a	0.0	0	0	0	catFR2	1	R1036M
1212.538	10.0	651992	COUNTDOWN_START	n/a	n/a	n/a	n/a	-999	0	10	[0, 0, 0]	n/a	0	0	0	n/a	n/a	0.0	0	0	0	catFR2	1	R1036M
1222.966	0.007	657205	COUNTDOWN_END	n/a	n/a	n/a	n/a	-999	0	10	[0, 0, 0]	n/a	0	0	0	n/a	n/a	0.0	0	0	0	catFR2	1	R1036M
1222.973	1.6	657209	ORIENT	n/a	n/a	n/a	n/a	-999	0	10	[0, 0, 0]	n/a	0	0	0	n/a	n/a	0.0	0	0	0	catFR2	1	R1036M
1226.807	1.6	659126	WORD	n/a	wordpools/wordpool_categorized_EN.txt	HUMIDITY	Weather	1	0	10	[0, 0, 0]	n/a	0	0	0	n/a	n/a	0.0	0	0	0	catFR2	1	R1036M
1229.224	1.6	660334	WORD	n/a	wordpools/wordpool_categorized_EN.txt	SNOW	Weather	2	0	10	[0, 0, 0]	n/a	0	0	0	n/a	n/a	0.0	0	0	0	catFR2	1	R1036M
1231.725	1.6	661585	WORD	n/a	wordpools/wordpool_categorized_EN.txt	SPEAKER	Electronics	3	0	10	[0, 0, 0]	n/a	0	0	0	n/a	n/a	0.0	0	0	0	catFR2	1	R1036M
1234.242	1.6	662843	WORD	n/a	wordpools/wordpool_categorized_EN.txt	TABLET	Electronics	4	0	10	[0, 0, 0]	n/a	0	0	0	n/a	n/a	0.0	0	0	0	catFR2	1	R1036M
1236.643	1.6	664043	WORD	n/a	wordpools/wordpool_categorized_EN.txt	BEETLE	Insects	5	0	10	[0, 0, 0]	n/a	0	0	0	n/a	n/a	0.0	0	0	0	catFR2	1	R1036M
1239.193	1.6	665318	WORD	n/a	wordpools/wordpool_categorized_EN.txt	FLY	Insects	6	0	10	[0, 0, 0]	n/a	0	0	0	n/a	n/a	0.0	0	0	0	catFR2	1	R1036M
1241.694	1.6	666569	WORD	n/a	wordpools/wordpool_categorized_EN.txt	LIGHTNING	Weather	7	0	10	[0, 0, 0]	n/a	0	0	0	n/a	n/a	0.0	0	0	0	catFR2	1	R1036M
1244.127	1.6	667785	WORD	n/a	wordpools/wordpool_categorized_EN.txt	DRIZZLE	Weather	8	0	10	[0, 0, 0]	n/a	0	0	0	n/a	n/a	0.0	0	0	0	catFR2	1	R1036M
1246.711	1.6	669077	WORD	n/a	wordpools/wordpool_categorized_EN.txt	BUTTERFLY	Insects	9	1	10	[0, 0, 0]	n/a	0	0	0	n/a	n/a	0.0	0	0	0	catFR2	1	R1036M
1249.212	1.6	670328	WORD	n/a	wordpools/wordpool_categorized_EN.txt	MOTH	Insects	10	1	10	[0, 0, 0]	n/a	0	0	0	n/a	n/a	0.0	0	0	0	catFR2	1	R1036M
1251.595	1.6	671519	WORD	n/a	wordpools/wordpool_categorized_EN.txt	PHONE	Electronics	11	0	10	[0, 0, 0]	n/a	0	0	0	n/a	n/a	0.0	0	0	0	catFR2	1	R1036M
1254.213	1.6	672828	WORD	n/a	wordpools/wordpool_categorized_EN.txt	TELEVISION	Electronics	12	0	10	[0, 0, 0]	n/a	0	0	0	n/a	n/a	0.0	0	0	0	catFR2	1	R1036M
1255.83	0.0	673636	DISTRACT_START	n/a	n/a	n/a	n/a	-999	0	10	[0, 0, 0]	n/a	0	0	0	n/a	n/a	0.0	0	0	0	catFR2	1	R1036M
1255.83	0.016	673636	START	n/a	n/a	n/a	n/a	-999	0	10	[-999, -999, -999]	n/a	0	0	0	n/a	n/a	0.0	0	0	0	catFR2	1	R1036M
1255.846	4.051	673644	PROB	4.03	n/a	n/a	n/a	-999	0	10	[2, 3, 2]	14	0	0	0	n/a	n/a	0.0	0	0	0	catFR2	1	R1036M
1259.897	2.934	675670	PROB	2.907	n/a	n/a	n/a	-999	0	10	[8, 2, 6]	20	0	0	0	n/a	n/a	0.0	0	0	0	catFR2	1	R1036M
1262.831	3.634	677137	PROB	3.606	n/a	n/a	n/a	-999	0	10	[3, 5, 6]	15	0	0	0	n/a	n/a	0.0	0	0	0	catFR2	1	R1036M
1266.465	3.317	678954	PROB	3.283	n/a	n/a	n/a	-999	0	10	[3, 8, 2]	14	0	0	0	n/a	n/a	0.0	0	0	0	catFR2	1	R1036M
1269.782	4.551	680612	PROB	4.526	n/a	n/a	n/a	-999	0	10	[3, 6, 4]	24	0	0	0	n/a	n/a	0.0	0	0	0	catFR2	1	R1036M
1274.333	4.847	682887	PROB	4.847	n/a	n/a	n/a	-999	0	10	[8, 1, 4]	16	0	0	0	n/a	n/a	0.0	0	0	0	catFR2	1	R1036M
1279.18	0.004	685311	STOP	n/a	n/a	n/a	n/a	-999	0	10	[-999, -999, -999]	n/a	0	0	0	n/a	n/a	0.0	0	0	0	catFR2	1	R1036M
1279.184	1.134	685313	DISTRACT_END	n/a	n/a	n/a	n/a	-999	0	10	[0, 0, 0]	n/a	0	0	0	n/a	n/a	0.0	0	0	0	catFR2	1	R1036M
1280.318	2.248	685880	REC_START	n/a	n/a	n/a	n/a	-999	0	10	[0, 0, 0]	n/a	0	0	0	n/a	n/a	0.0	0	0	0	catFR2	1	R1036M
1282.566	2.126	687004	REC_WORD	2.248	n/a	COMPUTER	n/a	-999	0	10	[0, 0, 0]	n/a	0	0	0	n/a	n/a	0.0	0	0	0	catFR2	1	R1036M
1284.692	2.282	688067	REC_WORD	4.374	n/a	BUTTERFLY	Insects	9	1	10	[0, 0, 0]	n/a	0	0	0	n/a	n/a	0.0	0	0	0	catFR2	1	R1036M
1286.974	3.788	689208	REC_WORD	6.656	n/a	MOTH	Insects	10	1	10	[0, 0, 0]	n/a	0	0	0	n/a	n/a	0.0	0	0	0	catFR2	1	R1036M
1290.762	4.662	691101	REC_WORD	10.444	n/a	HOUSE	n/a	-999	0	10	[0, 0, 0]	n/a	0	0	0	n/a	n/a	0.0	0	0	0	catFR2	1	R1036M
1295.424	2.654	693432	REC_WORD	15.106	n/a	THUNDER	n/a	-999	0	10	[0, 0, 0]	n/a	0	0	0	n/a	n/a	0.0	0	0	0	catFR2	1	R1036M
1298.078	6.309	694759	REC_WORD	17.76	n/a	HURRICANE	n/a	-999	0	10	[0, 0, 0]	n/a	0	0	0	n/a	n/a	0.0	0	0	0	catFR2	1	R1036M
1304.387	5.942	697914	REC_WORD	24.069	n/a	WIND	n/a	-999	0	10	[0, 0, 0]	n/a	0	0	0	n/a	n/a	0.0	0	0	0	catFR2	1	R1036M
1310.329	35.801	700884	REC_END	n/a	n/a	n/a	n/a	-999	0	10	[0, 0, 0]	n/a	0	0	0	n/a	n/a	0.0	0	0	0	catFR2	1	R1036M
1346.13	10.0	718784	COUNTDOWN_START	n/a	n/a	n/a	n/a	-999	0	11	[0, 0, 0]	n/a	0	1	0	n/a	n/a	0.0	0	0	0	catFR2	1	R1036M
1346.131	10.427	718784	TRIAL	n/a	n/a	n/a	n/a	-999	0	11	[0, 0, 0]	n/a	0	1	0	n/a	n/a	0.0	0	0	0	catFR2	1	R1036M
1356.558	0.008	723998	COUNTDOWN_END	n/a	n/a	n/a	n/a	-999	0	11	[0, 0, 0]	n/a	0	1	0	n/a	n/a	0.0	0	0	0	catFR2	1	R1036M
1356.566	1.6	724002	ORIENT	n/a	n/a	n/a	n/a	-999	0	11	[0, 0, 0]	n/a	0	1	0	n/a	n/a	0.0	0	0	0	catFR2	1	R1036M
1360.418	1.6	725927	WORD	n/a	wordpools/wordpool_categorized_EN.txt	CREEK	Landscapes	1	1	11	[0, 0, 0]	n/a	0	1	0	n/a	n/a	0.0	0	0	0	catFR2	1	R1036M
1362.8	1.6	727118	WORD	n/a	wordpools/wordpool_categorized_EN.txt	ISLAND	Landscapes	2	0	11	[0, 0, 0]	n/a	0	1	0	n/a	n/a	0.0	0	0	0	catFR2	1	R1036M
1365.084	4.6	728260	STIM_ON	n/a	n/a	n/a	n/a	-999	0	11	[0, 0, 0]	n/a	1	1	4600	LATD1	LATD2	1000.0	50	230	300	catFR2	1	R1036M
1365.301	1.6	728369	WORD	n/a	wordpools/wordpool_categorized_EN.txt	COUCH	Furniture	3	0	11	[0, 0, 0]	n/a	1	1	4600	LATD1	LATD2	1000.0	50	230	300	catFR2	1	R1036M
1367.901	1.6	729669	WORD	n/a	wordpools/wordpool_categorized_EN.txt	BED	Furniture	4	0	11	[0, 0, 0]	n/a	1	1	4600	LATD1	LATD2	1000.0	50	230	300	catFR2	1	R1036M
1370.501	1.6	730969	WORD	n/a	wordpools/wordpool_categorized_EN.txt	SPINACH	Vegetables	5	0	11	[0, 0, 0]	n/a	0	1	0	n/a	n/a	0.0	0	0	0	catFR2	1	R1036M
1372.952	1.6	732194	WORD	n/a	wordpools/wordpool_categorized_EN.txt	ONION	Vegetables	6	0	11	[0, 0, 0]	n/a	0	1	0	n/a	n/a	0.0	0	0	0	catFR2	1	R1036M
1375.341	4.6	733389	STIM_ON	n/a	n/a	n/a	n/a	-999	0	11	[0, 0, 0]	n/a	1	1	4600	LATD1	LATD2	1000.0	50	230	300	catFR2	1	R1036M
1375.553	1.6	733495	WORD	n/a	wordpools/wordpool_categorized_EN.txt	RECLINER	Furniture	7	0	11	[0, 0, 0]	n/a	1	1	4600	LATD1	LATD2	1000.0	50	230	300	catFR2	1	R1036M
1377.953	1.6	734694	WORD	n/a	wordpools/wordpool_categorized_EN.txt	NIGHTSTAND	Furniture	8	0	11	[0, 0, 0]	n/a	1	1	4600	LATD1	LATD2	1000.0	50	230	300	catFR2	1	R1036M
1380.438	1.6	735937	WORD	n/a	wordpools/wordpool_categorized_EN.txt	OCEAN	Landscapes	9	0	11	[0, 0, 0]	n/a	0	1	0	n/a	n/a	0.0	0	0	0	catFR2	1	R1036M
1383.038	1.6	737237	WORD	n/a	wordpools/wordpool_categorized_EN.txt	BEACH	Landscapes	10	0	11	[0, 0, 0]	n/a	0	1	0	n/a	n/a	0.0	0	0	0	catFR2	1	R1036M
1385.407	4.6	738421	STIM_ON	n/a	n/a	n/a	n/a	-999	0	11	[0, 0, 0]	n/a	1	1	4600	LATD1	LATD2	1000.0	50	230	300	catFR2	1	R1036M
1385.621	1.6	738528	WORD	n/a	wordpools/wordpool_categorized_EN.txt	LETTUCE	Vegetables	11	0	11	[0, 0, 0]	n/a	1	1	4600	LATD1	LATD2	1000.0	50	230	300	catFR2	1	R1036M
1388.222	1.6	739829	WORD	n/a	wordpools/wordpool_categorized_EN.txt	CABBAGE	Vegetables	12	1	11	[0, 0, 0]	n/a	1	1	4600	LATD1	LATD2	1000.0	50	230	300	catFR2	1	R1036M
1389.839	0.001	740637	DISTRACT_START	n/a	n/a	n/a	n/a	-999	0	11	[0, 0, 0]	n/a	0	1	0	n/a	n/a	0.0	0	0	0	catFR2	1	R1036M
1389.84	0.016	740638	START	n/a	n/a	n/a	n/a	-999	0	11	[-999, -999, -999]	n/a	0	1	0	n/a	n/a	0.0	0	0	0	catFR2	1	R1036M
1389.856	5.384	740646	PROB	5.364	n/a	n/a	n/a	-999	0	11	[1, 6, 7]	14	0	1	0	n/a	n/a	0.0	0	0	0	catFR2	1	R1036M
1395.24	4.017	743337	PROB	3.988	n/a	n/a	n/a	-999	0	11	[1, 2, 5]	8	0	1	0	n/a	n/a	0.0	0	0	0	catFR2	1	R1036M
1399.257	3.418	745346	PROB	3.395	n/a	n/a	n/a	-999	0	11	[1, 9, 6]	14	0	1	0	n/a	n/a	0.0	0	0	0	catFR2	1	R1036M
1402.675	8.129	747055	PROB	8.129	n/a	n/a	n/a	-999	0	11	[3, 9, 3]	18	0	1	0	n/a	n/a	0.0	0	0	0	catFR2	1	R1036M
1410.804	0.006	751119	STOP	n/a	n/a	n/a	n/a	-999	0	11	[-999, -999, -999]	n/a	0	1	0	n/a	n/a	0.0	0	0	0	catFR2	1	R1036M
1410.81	1.184	751122	DISTRACT_END	n/a	n/a	n/a	n/a	-999	0	11	[0, 0, 0]	n/a	0	1	0	n/a	n/a	0.0	0	0	0	catFR2	1	R1036M
1411.994	1.162	751714	REC_START	n/a	n/a	n/a	n/a	-999	0	11	[0, 0, 0]	n/a	0	1	0	n/a	n/a	0.0	0	0	0	catFR2	1	R1036M
1413.156	1.32	752295	REC_WORD	1.162	n/a	CREEK	Landscapes	1	1	11	[0, 0, 0]	n/a	0	1	0	n/a	n/a	0.0	0	0	0	catFR2	1	R1036M
1414.476	6.294	752955	REC_WORD	2.482	n/a	CABBAGE	Vegetables	12	1	11	[0, 0, 0]	n/a	0	1	0	n/a	n/a	0.0	0	0	0	catFR2	1	R1036M
1420.77	4.793	756102	REC_WORD	8.776	n/a	TOMATO	n/a	-999	0	11	[0, 0, 0]	n/a	0	1	0	n/a	n/a	0.0	0	0	0	catFR2	1	R1036M
1425.563	14.885	758498	REC_WORD	13.569	n/a	LIGHTNING	n/a	-999	0	11	[0, 0, 0]	n/a	0	1	0	n/a	n/a	0.0	0	0	0	catFR2	1	R1036M
1440.448	1.555	765940	REC_WORD	28.454	n/a	THUNDER	n/a	-999	0	11	[0, 0, 0]	n/a	0	1	0	n/a	n/a	0.0	0	0	0	catFR2	1	R1036M
1442.003	20.0	766718	REC_END	n/a	n/a	n/a	n/a	-999	0	11	[0, 0, 0]	n/a	0	1	0	n/a	n/a	0.0	0	0	0	catFR2	1	R1036M
1462.003	10.0	776717	COUNTDOWN_START	n/a	n/a	n/a	n/a	-999	0	12	[0, 0, 0]	n/a	0	0	0	n/a	n/a	0.0	0	0	0	catFR2	1	R1036M
1462.003	10.428	776717	TRIAL	n/a	n/a	n/a	n/a	-999	0	12	[0, 0, 0]	n/a	0	0	0	n/a	n/a	0.0	0	0	0	catFR2	1	R1036M
1472.431	0.008	781931	COUNTDOWN_END	n/a	n/a	n/a	n/a	-999	0	12	[0, 0, 0]	n/a	0	0	0	n/a	n/a	0.0	0	0	0	catFR2	1	R1036M
1472.439	1.6	781935	ORIENT	n/a	n/a	n/a	n/a	-999	0	12	[0, 0, 0]	n/a	0	0	0	n/a	n/a	0.0	0	0	0	catFR2	1	R1036M
1476.022	1.6	783726	WORD	n/a	wordpools/wordpool_categorized_EN.txt	PAPER	OfficeSupplies	1	1	12	[0, 0, 0]	n/a	0	0	0	n/a	n/a	0.0	0	0	0	catFR2	1	R1036M
1478.44	1.6	784935	WORD	n/a	wordpools/wordpool_categorized_EN.txt	RULER	OfficeSupplies	2	1	12	[0, 0, 0]	n/a	0	0	0	n/a	n/a	0.0	0	0	0	catFR2	1	R1036M
1481.04	1.6	786235	WORD	n/a	wordpools/wordpool_categorized_EN.txt	OAK	Trees	3	1	12	[0, 0, 0]	n/a	0	0	0	n/a	n/a	0.0	0	0	0	catFR2	1	R1036M
1483.474	1.6	787452	WORD	n/a	wordpools/wordpool_categorized_EN.txt	PINE	Trees	4	1	12	[0, 0, 0]	n/a	0	0	0	n/a	n/a	0.0	0	0	0	catFR2	1	R1036M
1486.024	1.6	788727	WORD	n/a	wordpools/wordpool_categorized_EN.txt	WASHER	Appliances	5	0	12	[0, 0, 0]	n/a	0	0	0	n/a	n/a	0.0	0	0	0	catFR2	1	R1036M
1488.508	1.6	789969	WORD	n/a	wordpools/wordpool_categorized_EN.txt	VACUUM	Appliances	6	0	12	[0, 0, 0]	n/a	0	0	0	n/a	n/a	0.0	0	0	0	catFR2	1	R1036M
1490.958	1.6	791194	WORD	n/a	wordpools/wordpool_categorized_EN.txt	MAPLE	Trees	7	0	12	[0, 0, 0]	n/a	0	0	0	n/a	n/a	0.0	0	0	0	catFR2	1	R1036M
1493.343	1.6	792386	WORD	n/a	wordpools/wordpool_categorized_EN.txt	HICKORY	Trees	8	0	12	[0, 0, 0]	n/a	0	0	0	n/a	n/a	0.0	0	0	0	catFR2	1	R1036M
1495.859	1.6	793644	WORD	n/a	wordpools/wordpool_categorized_EN.txt	TAPE	OfficeSupplies	9	1	12	[0, 0, 0]	n/a	0	0	0	n/a	n/a	0.0	0	0	0	catFR2	1	R1036M
1498.26	1.6	794845	WORD	n/a	wordpools/wordpool_categorized_EN.txt	ERASER	OfficeSupplies	10	0	12	[0, 0, 0]	n/a	0	0	0	n/a	n/a	0.0	0	0	0	catFR2	1	R1036M
1500.877	1.6	796153	WORD	n/a	wordpools/wordpool_categorized_EN.txt	FREEZER	Appliances	11	0	12	[0, 0, 0]	n/a	0	0	0	n/a	n/a	0.0	0	0	0	catFR2	1	R1036M
1503.362	1.6	797395	WORD	n/a	wordpools/wordpool_categorized_EN.txt	IRON	Appliances	12	0	12	[0, 0, 0]	n/a	0	0	0	n/a	n/a	0.0	0	0	0	catFR2	1	R1036M
1504.978	0.001	798203	DISTRACT_START	n/a	n/a	n/a	n/a	-999	0	12	[0, 0, 0]	n/a	0	0	0	n/a	n/a	0.0	0	0	0	catFR2	1	R1036M
1504.979	0.016	798204	START	n/a	n/a	n/a	n/a	-999	0	12	[-999, -999, -999]	n/a	0	0	0	n/a	n/a	0.0	0	0	0	catFR2	1	R1036M
1504.995	4.418	798212	PROB	4.394	n/a	n/a	n/a	-999	0	12	[9, 1, 5]	15	0	0	0	n/a	n/a	0.0	0	0	0	catFR2	1	R1036M
1509.413	5.067	800421	PROB	5.032	n/a	n/a	n/a	-999	0	12	[6, 1, 3]	10	0	0	0	n/a	n/a	0.0	0	0	0	catFR2	1	R1036M
1514.48	3.868	802954	PROB	3.844	n/a	n/a	n/a	-999	0	12	[1, 3, 2]	6	0	0	0	n/a	n/a	0.0	0	0	0	catFR2	1	R1036M
1518.348	4.034	804888	PROB	4.001	n/a	n/a	n/a	-999	0	12	[4, 4, 8]	16	0	0	0	n/a	n/a	0.0	0	0	0	catFR2	1	R1036M
1522.382	4.734	806905	PROB	4.734	n/a	n/a	n/a	-999	0	12	[4, 6, 9]	32	0	0	0	n/a	n/a	0.0	0	0	0	catFR2	1	R1036M
1527.116	0.016	809272	STOP	n/a	n/a	n/a	n/a	-999	0	12	[-999, -999, -999]	n/a	0	0	0	n/a	n/a	0.0	0	0	0	catFR2	1	R1036M
1527.132	1.067	809280	DISTRACT_END	n/a	n/a	n/a	n/a	-999	0	12	[0, 0, 0]	n/a	0	0	0	n/a	n/a	0.0	0	0	0	catFR2	1	R1036M
1528.199	1.361	809813	REC_START	n/a	n/a	n/a	n/a	-999	0	12	[0, 0, 0]	n/a	0	0	0	n/a	n/a	0.0	0	0	0	catFR2	1	R1036M
1529.56	5.462	810494	REC_WORD	1.361	n/a	DRYER	n/a	-999	0	12	[0, 0, 0]	n/a	0	0	0	n/a	n/a	0.0	0	0	0	catFR2	1	R1036M
1535.022	2.285	813224	REC_WORD	6.823	n/a	MIXER	n/a	-999	0	12	[0, 0, 0]	n/a	0	0	0	n/a	n/a	0.0	0	0	0	catFR2	1	R1036M
1537.307	2.9	814367	REC_WORD	9.108	n/a	OAK	Trees	3	1	12	[0, 0, 0]	n/a	0	0	0	n/a	n/a	0.0	0	0	0	catFR2	1	R1036M
1540.207	4.281	815817	REC_WORD	12.008	n/a	PINE	Trees	4	1	12	[0, 0, 0]	n/a	0	0	0	n/a	n/a	0.0	0	0	0	catFR2	1	R1036M
1544.488	4.578	817957	REC_WORD	16.289	n/a	DESK	n/a	-999	0	12	[0, 0, 0]	n/a	0	0	0	n/a	n/a	0.0	0	0	0	catFR2	1	R1036M
1549.066	3.489	820246	REC_WORD	20.867	n/a	TAPE	OfficeSupplies	9	1	12	[0, 0, 0]	n/a	0	0	0	n/a	n/a	0.0	0	0	0	catFR2	1	R1036M
1552.555	3.437	821990	REC_WORD	24.356	n/a	RULER	OfficeSupplies	2	1	12	[0, 0, 0]	n/a	0	0	0	n/a	n/a	0.0	0	0	0	catFR2	1	R1036M
1555.992	2.218	823709	REC_WORD	27.793	n/a	PAPER	OfficeSupplies	1	1	12	[0, 0, 0]	n/a	0	0	0	n/a	n/a	0.0	0	0	0	catFR2	1	R1036M
1558.21	31.534	824818	REC_END	n/a	n/a	n/a	n/a	-999	0	12	[0, 0, 0]	n/a	0	0	0	n/a	n/a	0.0	0	0	0	catFR2	1	R1036M
1589.744	10.0	840584	COUNTDOWN_START	n/a	n/a	n/a	n/a	-999	0	13	[0, 0, 0]	n/a	0	1	0	n/a	n/a	0.0	0	0	0	catFR2	1	R1036M
1589.745	10.427	840584	TRIAL	n/a	n/a	n/a	n/a	-999	0	13	[0, 0, 0]	n/a	0	1	0	n/a	n/a	0.0	0	0	0	catFR2	1	R1036M
1600.172	0.008	845798	COUNTDOWN_END	n/a	n/a	n/a	n/a	-999	0	13	[0, 0, 0]	n/a	0	1	0	n/a	n/a	0.0	0	0	0	catFR2	1	R1036M
1600.18	1.6	845802	ORIENT	n/a	n/a	n/a	n/a	-999	0	13	[0, 0, 0]	n/a	0	1	0	n/a	n/a	0.0	0	0	0	catFR2	1	R1036M
1603.461	4.6	847442	STIM_ON	n/a	n/a	n/a	n/a	-999	0	13	[0, 0, 0]	n/a	1	1	4600	LATD1	LATD2	1000.0	50	230	300	catFR2	1	R1036M
1603.663	1.6	847543	WORD	n/a	wordpools/wordpool_categorized_EN.txt	HAND	BodyParts	1	0	13	[0, 0, 0]	n/a	1	1	4600	LATD1	LATD2	1000.0	50	230	300	catFR2	1	R1036M
1606.097	1.6	848760	WORD	n/a	wordpools/wordpool_categorized_EN.txt	TOE	BodyParts	2	1	13	[0, 0, 0]	n/a	1	1	4600	LATD1	LATD2	1000.0	50	230	300	catFR2	1	R1036M
1608.565	1.6	849994	WORD	n/a	wordpools/wordpool_categorized_EN.txt	CORKSCREW	KitchenTools	3	0	13	[0, 0, 0]	n/a	0	1	0	n/a	n/a	0.0	0	0	0	catFR2	1	R1036M
1611.015	1.6	851219	WORD	n/a	wordpools/wordpool_categorized_EN.txt	LADLE	KitchenTools	4	0	13	[0, 0, 0]	n/a	0	1	0	n/a	n/a	0.0	0	0	0	catFR2	1	R1036M
1613.351	4.6	852387	STIM_ON	n/a	n/a	n/a	n/a	-999	0	13	[0, 0, 0]	n/a	1	1	4600	LATD1	LATD2	1000.0	50	230	300	catFR2	1	R1036M
1613.566	1.6	852494	WORD	n/a	wordpools/wordpool_categorized_EN.txt	CUPCAKE	Desserts	5	1	13	[0, 0, 0]	n/a	1	1	4600	LATD1	LATD2	1000.0	50	230	300	catFR2	1	R1036M
1616.149	1.6	853786	WORD	n/a	wordpools/wordpool_categorized_EN.txt	FUDGE	Desserts	6	0	13	[0, 0, 0]	n/a	1	1	4600	LATD1	LATD2	1000.0	50	230	300	catFR2	1	R1036M
1618.583	1.6	855003	WORD	n/a	wordpools/wordpool_categorized_EN.txt	COLANDER	KitchenTools	7	0	13	[0, 0, 0]	n/a	0	1	0	n/a	n/a	0.0	0	0	0	catFR2	1	R1036M
1620.967	1.6	856195	WORD	n/a	wordpools/wordpool_categorized_EN.txt	PEELER	KitchenTools	8	0	13	[0, 0, 0]	n/a	0	1	0	n/a	n/a	0.0	0	0	0	catFR2	1	R1036M
1623.298	4.6	857360	STIM_ON	n/a	n/a	n/a	n/a	-999	0	13	[0, 0, 0]	n/a	1	1	4600	LATD1	LATD2	1000.0	50	230	300	catFR2	1	R1036M
1623.501	1.6	857461	WORD	n/a	wordpools/wordpool_categorized_EN.txt	FOOT	BodyParts	9	1	13	[0, 0, 0]	n/a	1	1	4600	LATD1	LATD2	1000.0	50	230	300	catFR2	1	R1036M
1625.951	1.6	858686	WORD	n/a	wordpools/wordpool_categorized_EN.txt	KNEE	BodyParts	10	0	13	[0, 0, 0]	n/a	1	1	4600	LATD1	LATD2	1000.0	50	230	300	catFR2	1	R1036M
1628.552	1.6	859987	WORD	n/a	wordpools/wordpool_categorized_EN.txt	CAKE	Desserts	11	1	13	[0, 0, 0]	n/a	0	1	0	n/a	n/a	0.0	0	0	0	catFR2	1	R1036M
1630.936	1.6	861179	WORD	n/a	wordpools/wordpool_categorized_EN.txt	PASTRY	Desserts	12	0	13	[0, 0, 0]	n/a	0	1	0	n/a	n/a	0.0	0	0	0	catFR2	1	R1036M
1632.553	0.0	861987	DISTRACT_START	n/a	n/a	n/a	n/a	-999	0	13	[0, 0, 0]	n/a	0	1	0	n/a	n/a	0.0	0	0	0	catFR2	1	R1036M
1632.553	0.016	861987	START	n/a	n/a	n/a	n/a	-999	0	13	[-999, -999, -999]	n/a	0	1	0	n/a	n/a	0.0	0	0	0	catFR2	1	R1036M
1632.569	4.951	861995	PROB	4.923	n/a	n/a	n/a	-999	0	13	[8, 1, 1]	10	0	1	0	n/a	n/a	0.0	0	0	0	catFR2	1	R1036M
1637.52	4.018	864471	PROB	3.996	n/a	n/a	n/a	-999	0	13	[9, 6, 5]	19	0	1	0	n/a	n/a	0.0	0	0	0	catFR2	1	R1036M
1641.538	4.367	866479	PROB	4.345	n/a	n/a	n/a	-999	0	13	[3, 1, 9]	13	0	1	0	n/a	n/a	0.0	0	0	0	catFR2	1	R1036M
1645.905	3.551	868663	PROB	3.516	n/a	n/a	n/a	-999	0	13	[1, 4, 9]	14	0	1	0	n/a	n/a	0.0	0	0	0	catFR2	1	R1036M
1649.456	4.524	870438	PROB	4.524	n/a	n/a	n/a	-999	0	13	[8, 8, 1]	17	0	1	0	n/a	n/a	0.0	0	0	0	catFR2	1	R1036M
1653.98	0.01	872700	STOP	n/a	n/a	n/a	n/a	-999	0	13	[-999, -999, -999]	n/a	0	1	0	n/a	n/a	0.0	0	0	0	catFR2	1	R1036M
1653.99	1.085	872705	DISTRACT_END	n/a	n/a	n/a	n/a	-999	0	13	[0, 0, 0]	n/a	0	1	0	n/a	n/a	0.0	0	0	0	catFR2	1	R1036M
1655.075	2.074	873248	REC_START	n/a	n/a	n/a	n/a	-999	0	13	[0, 0, 0]	n/a	0	1	0	n/a	n/a	0.0	0	0	0	catFR2	1	R1036M
1657.149	1.304	874285	REC_WORD	2.074	n/a	CAKE	Desserts	11	1	13	[0, 0, 0]	n/a	0	1	0	n/a	n/a	0.0	0	0	0	catFR2	1	R1036M
1658.453	5.205	874936	REC_WORD	3.378	n/a	CUPCAKE	Desserts	5	1	13	[0, 0, 0]	n/a	0	1	0	n/a	n/a	0.0	0	0	0	catFR2	1	R1036M
1663.658	4.34	877539	REC_WORD	8.583	n/a	TOE	BodyParts	2	1	13	[0, 0, 0]	n/a	0	1	0	n/a	n/a	0.0	0	0	0	catFR2	1	R1036M
1667.998	7.205	879709	REC_WORD	12.923	n/a	ELBOW	n/a	-999	0	13	[0, 0, 0]	n/a	0	1	0	n/a	n/a	0.0	0	0	0	catFR2	1	R1036M
1675.203	9.883	883311	REC_WORD	20.128	n/a	FOOT	BodyParts	9	1	13	[0, 0, 0]	n/a	0	1	0	n/a	n/a	0.0	0	0	0	catFR2	1	R1036M
1685.086	21.414	888252	REC_END	n/a	n/a	n/a	n/a	-999	0	13	[0, 0, 0]	n/a	0	1	0	n/a	n/a	0.0	0	0	0	catFR2	1	R1036M
1706.5	0.0	898959	TRIAL	n/a	n/a	n/a	n/a	-999	0	14	[0, 0, 0]	n/a	0	1	0	n/a	n/a	0.0	0	0	0	catFR2	1	R1036M
1706.5	10.0	898959	COUNTDOWN_START	n/a	n/a	n/a	n/a	-999	0	14	[0, 0, 0]	n/a	0	1	0	n/a	n/a	0.0	0	0	0	catFR2	1	R1036M
1716.928	0.008	904172	COUNTDOWN_END	n/a	n/a	n/a	n/a	-999	0	14	[0, 0, 0]	n/a	0	1	0	n/a	n/a	0.0	0	0	0	catFR2	1	R1036M
1716.936	1.6	904176	ORIENT	n/a	n/a	n/a	n/a	-999	0	14	[0, 0, 0]	n/a	0	1	0	n/a	n/a	0.0	0	0	0	catFR2	1	R1036M
1720.786	1.6	906101	WORD	n/a	wordpools/wordpool_categorized_EN.txt	ORANGE	Fruit	1	1	14	[0, 0, 0]	n/a	0	1	0	n/a	n/a	0.0	0	0	0	catFR2	1	R1036M
1723.338	1.6	907377	WORD	n/a	wordpools/wordpool_categorized_EN.txt	GRAPE	Fruit	2	1	14	[0, 0, 0]	n/a	0	1	0	n/a	n/a	0.0	0	0	0	catFR2	1	R1036M
1725.538	4.6	908477	STIM_ON	n/a	n/a	n/a	n/a	-999	0	14	[0, 0, 0]	n/a	1	1	4600	LATD1	LATD2	1000.0	50	230	300	catFR2	1	R1036M
1725.754	1.6	908585	WORD	n/a	wordpools/wordpool_categorized_EN.txt	JELLO	Desserts	3	1	14	[0, 0, 0]	n/a	1	1	4600	LATD1	LATD2	1000.0	50	230	300	catFR2	1	R1036M
1728.221	1.6	909819	WORD	n/a	wordpools/wordpool_categorized_EN.txt	PIE	Desserts	4	0	14	[0, 0, 0]	n/a	1	1	4600	LATD1	LATD2	1000.0	50	230	300	catFR2	1	R1036M
1730.672	1.6	911044	WORD	n/a	wordpools/wordpool_categorized_EN.txt	VIOLIN	Instruments	5	0	14	[0, 0, 0]	n/a	0	1	0	n/a	n/a	0.0	0	0	0	catFR2	1	R1036M
1733.055	1.6	912235	WORD	n/a	wordpools/wordpool_categorized_EN.txt	BANJO	Instruments	6	0	14	[0, 0, 0]	n/a	0	1	0	n/a	n/a	0.0	0	0	0	catFR2	1	R1036M
1735.316	4.6	913366	STIM_ON	n/a	n/a	n/a	n/a	-999	0	14	[0, 0, 0]	n/a	1	1	4600	LATD1	LATD2	1000.0	50	230	300	catFR2	1	R1036M
1735.523	1.6	913469	WORD	n/a	wordpools/wordpool_categorized_EN.txt	CHERRY	Fruit	7	1	14	[0, 0, 0]	n/a	1	1	4600	LATD1	LATD2	1000.0	50	230	300	catFR2	1	R1036M
1737.923	1.6	914669	WORD	n/a	wordpools/wordpool_categorized_EN.txt	STRAWBERRY	Fruit	8	1	14	[0, 0, 0]	n/a	1	1	4600	LATD1	LATD2	1000.0	50	230	300	catFR2	1	R1036M
1740.49	1.6	915953	WORD	n/a	wordpools/wordpool_categorized_EN.txt	TRUMPET	Instruments	9	0	14	[0, 0, 0]	n/a	0	1	0	n/a	n/a	0.0	0	0	0	catFR2	1	R1036M
1742.907	1.6	917161	WORD	n/a	wordpools/wordpool_categorized_EN.txt	FLUTE	Instruments	10	0	14	[0, 0, 0]	n/a	0	1	0	n/a	n/a	0.0	0	0	0	catFR2	1	R1036M
1745.167	4.6	918291	STIM_ON	n/a	n/a	n/a	n/a	-999	0	14	[0, 0, 0]	n/a	1	1	4600	LATD1	LATD2	1000.0	50	230	300	catFR2	1	R1036M
1745.376	1.6	918396	WORD	n/a	wordpools/wordpool_categorized_EN.txt	MOUSSE	Desserts	11	0	14	[0, 0, 0]	n/a	1	1	4600	LATD1	LATD2	1000.0	50	230	300	catFR2	1	R1036M
1747.892	1.6	919653	WORD	n/a	wordpools/wordpool_categorized_EN.txt	COBBLER	Desserts	12	1	14	[0, 0, 0]	n/a	1	1	4600	LATD1	LATD2	1000.0	50	230	300	catFR2	1	R1036M
1749.509	0.0	920462	DISTRACT_START	n/a	n/a	n/a	n/a	-999	0	14	[0, 0, 0]	n/a	0	1	0	n/a	n/a	0.0	0	0	0	catFR2	1	R1036M
1749.509	0.016	920462	START	n/a	n/a	n/a	n/a	-999	0	14	[-999, -999, -999]	n/a	0	1	0	n/a	n/a	0.0	0	0	0	catFR2	1	R1036M
1749.525	4.018	920470	PROB	3.991	n/a	n/a	n/a	-999	0	14	[2, 7, 8]	21	0	1	0	n/a	n/a	0.0	0	0	0	catFR2	1	R1036M
1753.543	4.917	922479	PROB	4.894	n/a	n/a	n/a	-999	0	14	[8, 1, 3]	12	0	1	0	n/a	n/a	0.0	0	0	0	catFR2	1	R1036M
1758.46	8.735	924937	PROB	8.704	n/a	n/a	n/a	-999	0	14	[9, 7, 3]	20	0	1	0	n/a	n/a	0.0	0	0	0	catFR2	1	R1036M
1767.195	7.745	929304	PROB	7.745	n/a	n/a	n/a	-999	0	14	[9, 3, 8]	21	0	1	0	n/a	n/a	0.0	0	0	0	catFR2	1	R1036M
1774.94	0.007	933177	STOP	n/a	n/a	n/a	n/a	-999	0	14	[-999, -999, -999]	n/a	0	1	0	n/a	n/a	0.0	0	0	0	catFR2	1	R1036M
1774.947	1.067	933180	DISTRACT_END	n/a	n/a	n/a	n/a	-999	0	14	[0, 0, 0]	n/a	0	1	0	n/a	n/a	0.0	0	0	0	catFR2	1	R1036M
1776.014	3.638	933714	REC_START	n/a	n/a	n/a	n/a	-999	0	14	[0, 0, 0]	n/a	0	1	0	n/a	n/a	0.0	0	0	0	catFR2	1	R1036M
1779.652	1.308	935533	REC_WORD	3.638	n/a	STRAWBERRY	Fruit	8	1	14	[0, 0, 0]	n/a	0	1	0	n/a	n/a	0.0	0	0	0	catFR2	1	R1036M
1780.96	1.433	936187	REC_WORD	4.946	n/a	GRAPE	Fruit	2	1	14	[0, 0, 0]	n/a	0	1	0	n/a	n/a	0.0	0	0	0	catFR2	1	R1036M
1782.393	1.902	936903	REC_WORD	6.379	n/a	ORANGE	Fruit	1	1	14	[0, 0, 0]	n/a	0	1	0	n/a	n/a	0.0	0	0	0	catFR2	1	R1036M
1784.295	6.055	937854	REC_WORD	8.281	n/a	JELLO	Desserts	3	1	14	[0, 0, 0]	n/a	0	1	0	n/a	n/a	0.0	0	0	0	catFR2	1	R1036M
1790.35	2.552	940881	REC_WORD	14.336	n/a	COBBLER	Desserts	12	1	14	[0, 0, 0]	n/a	0	1	0	n/a	n/a	0.0	0	0	0	catFR2	1	R1036M
1792.902	6.129	942157	REC_WORD	16.888	n/a	CHERRY	Fruit	7	1	14	[0, 0, 0]	n/a	0	1	0	n/a	n/a	0.0	0	0	0	catFR2	1	R1036M
1799.031	6.994	945222	REC_WORD	23.017	n/a	PEACH	n/a	-999	0	14	[0, 0, 0]	n/a	0	1	0	n/a	n/a	0.0	0	0	0	catFR2	1	R1036M
1806.025	9.046	948718	REC_END	n/a	n/a	n/a	n/a	-999	0	14	[0, 0, 0]	n/a	0	1	0	n/a	n/a	0.0	0	0	0	catFR2	1	R1036M
1815.071	10.0	953241	COUNTDOWN_START	n/a	n/a	n/a	n/a	-999	0	15	[0, 0, 0]	n/a	0	1	0	n/a	n/a	0.0	0	0	0	catFR2	1	R1036M
1815.071	10.428	953241	TRIAL	n/a	n/a	n/a	n/a	-999	0	15	[0, 0, 0]	n/a	0	1	0	n/a	n/a	0.0	0	0	0	catFR2	1	R1036M
1825.499	0.008	958455	COUNTDOWN_END	n/a	n/a	n/a	n/a	-999	0	15	[0, 0, 0]	n/a	0	1	0	n/a	n/a	0.0	0	0	0	catFR2	1	R1036M
1825.507	1.6	958459	ORIENT	n/a	n/a	n/a	n/a	-999	0	15	[0, 0, 0]	n/a	0	1	0	n/a	n/a	0.0	0	0	0	catFR2	1	R1036M
1829.26	4.6	960335	STIM_ON	n/a	n/a	n/a	n/a	-999	0	15	[0, 0, 0]	n/a	1	1	4600	LATD1	LATD2	1000.0	50	230	300	catFR2	1	R1036M
1829.474	1.6	960442	WORD	n/a	wordpools/wordpool_categorized_EN.txt	COAT	Clothing	1	0	15	[0, 0, 0]	n/a	1	1	4600	LATD1	LATD2	1000.0	50	230	300	catFR2	1	R1036M
1831.958	1.6	961684	WORD	n/a	wordpools/wordpool_categorized_EN.txt	JACKET	Clothing	2	0	15	[0, 0, 0]	n/a	1	1	4600	LATD1	LATD2	1000.0	50	230	300	catFR2	1	R1036M
1834.508	1.6	962959	WORD	n/a	wordpools/wordpool_categorized_EN.txt	BEE	Insects	3	1	15	[0, 0, 0]	n/a	0	1	0	n/a	n/a	0.0	0	0	0	catFR2	1	R1036M
1837.092	1.6	964251	WORD	n/a	wordpools/wordpool_categorized_EN.txt	ROACH	Insects	4	0	15	[0, 0, 0]	n/a	0	1	0	n/a	n/a	0.0	0	0	0	catFR2	1	R1036M
1839.429	4.6	965419	STIM_ON	n/a	n/a	n/a	n/a	-999	0	15	[0, 0, 0]	n/a	1	1	4600	LATD1	LATD2	1000.0	50	230	300	catFR2	1	R1036M
1839.643	1.6	965526	WORD	n/a	wordpools/wordpool_categorized_EN.txt	HAMMER	Tools	5	1	15	[0, 0, 0]	n/a	1	1	4600	LATD1	LATD2	1000.0	50	230	300	catFR2	1	R1036M
1842.26	1.6	966835	WORD	n/a	wordpools/wordpool_categorized_EN.txt	SANDER	Tools	6	0	15	[0, 0, 0]	n/a	1	1	4600	LATD1	LATD2	1000.0	50	230	300	catFR2	1	R1036M
1844.827	1.6	968118	WORD	n/a	wordpools/wordpool_categorized_EN.txt	CRICKET	Insects	7	0	15	[0, 0, 0]	n/a	0	1	0	n/a	n/a	0.0	0	0	0	catFR2	1	R1036M
1847.294	1.6	969352	WORD	n/a	wordpools/wordpool_categorized_EN.txt	ANT	Insects	8	1	15	[0, 0, 0]	n/a	0	1	0	n/a	n/a	0.0	0	0	0	catFR2	1	R1036M
1849.548	4.6	970479	STIM_ON	n/a	n/a	n/a	n/a	-999	0	15	[0, 0, 0]	n/a	1	1	4600	LATD1	LATD2	1000.0	50	230	300	catFR2	1	R1036M
1849.761	1.6	970585	WORD	n/a	wordpools/wordpool_categorized_EN.txt	BLOUSE	Clothing	9	0	15	[0, 0, 0]	n/a	1	1	4600	LATD1	LATD2	1000.0	50	230	300	catFR2	1	R1036M
1852.195	1.6	971802	WORD	n/a	wordpools/wordpool_categorized_EN.txt	SHOES	Clothing	10	1	15	[0, 0, 0]	n/a	1	1	4600	LATD1	LATD2	1000.0	50	230	300	catFR2	1	R1036M
1854.595	1.6	973002	WORD	n/a	wordpools/wordpool_categorized_EN.txt	CROWBAR	Tools	11	1	15	[0, 0, 0]	n/a	0	1	0	n/a	n/a	0.0	0	0	0	catFR2	1	R1036M
1857.113	1.6	974261	WORD	n/a	wordpools/wordpool_categorized_EN.txt	LEVEL	Tools	12	0	15	[0, 0, 0]	n/a	0	1	0	n/a	n/a	0.0	0	0	0	catFR2	1	R1036M
1858.73	0.0	975069	DISTRACT_START	n/a	n/a	n/a	n/a	-999	0	15	[0, 0, 0]	n/a	0	1	0	n/a	n/a	0.0	0	0	0	catFR2	1	R1036M
1858.73	0.016	975069	START	n/a	n/a	n/a	n/a	-999	0	15	[-999, -999, -999]	n/a	0	1	0	n/a	n/a	0.0	0	0	0	catFR2	1	R1036M
1858.746	7.085	975077	PROB	7.065	n/a	n/a	n/a	-999	0	15	[2, 6, 3]	11	0	1	0	n/a	n/a	0.0	0	0	0	catFR2	1	R1036M
1865.831	5.918	978620	PROB	5.893	n/a	n/a	n/a	-999	0	15	[7, 8, 8]	23	0	1	0	n/a	n/a	0.0	0	0	0	catFR2	1	R1036M
1871.749	10.143	981578	PROB	10.143	n/a	n/a	n/a	-999	0	15	[7, 8, 6]	21	0	1	0	n/a	n/a	0.0	0	0	0	catFR2	1	R1036M
1881.892	0.009	986650	STOP	n/a	n/a	n/a	n/a	-999	0	15	[-999, -999, -999]	n/a	0	1	0	n/a	n/a	0.0	0	0	0	catFR2	1	R1036M
1881.901	1.117	986654	DISTRACT_END	n/a	n/a	n/a	n/a	-999	0	15	[0, 0, 0]	n/a	0	1	0	n/a	n/a	0.0	0	0	0	catFR2	1	R1036M
1883.018	8.407	987213	REC_START	n/a	n/a	n/a	n/a	-999	0	15	[0, 0, 0]	n/a	0	1	0	n/a	n/a	0.0	0	0	0	catFR2	1	R1036M
1891.425	2.656	991416	REC_WORD	8.407	n/a	SHOES	Clothing	10	1	15	[0, 0, 0]	n/a	0	1	0	n/a	n/a	0.0	0	0	0	catFR2	1	R1036M
1894.081	2.42	992744	REC_WORD	11.063	n/a	DRESS	n/a	-999	0	15	[0, 0, 0]	n/a	0	1	0	n/a	n/a	0.0	0	0	0	catFR2	1	R1036M
1896.501	2.891	993954	REC_WORD	13.483	n/a	CROWBAR	Tools	11	1	15	[0, 0, 0]	n/a	0	1	0	n/a	n/a	0.0	0	0	0	catFR2	1	R1036M
1899.392	6.664	995399	REC_WORD	16.374	n/a	HAMMER	Tools	5	1	15	[0, 0, 0]	n/a	0	1	0	n/a	n/a	0.0	0	0	0	catFR2	1	R1036M
1906.056	3.041	998731	REC_WORD	23.038	n/a	ANT	Insects	8	1	15	[0, 0, 0]	n/a	0	1	0	n/a	n/a	0.0	0	0	0	catFR2	1	R1036M
1909.097	3.935	1000251	REC_WORD	26.079	n/a	BEE	Insects	3	1	15	[0, 0, 0]	n/a	0	1	0	n/a	n/a	0.0	0	0	0	catFR2	1	R1036M
1913.032	16.528	1002219	REC_END	n/a	n/a	n/a	n/a	-999	0	15	[0, 0, 0]	n/a	0	1	0	n/a	n/a	0.0	0	0	0	catFR2	1	R1036M
1929.56	0.0	1010482	TRIAL	n/a	n/a	n/a	n/a	-999	0	16	[0, 0, 0]	n/a	0	1	0	n/a	n/a	0.0	0	0	0	catFR2	1	R1036M
1929.56	10.0	1010482	COUNTDOWN_START	n/a	n/a	n/a	n/a	-999	0	16	[0, 0, 0]	n/a	0	1	0	n/a	n/a	0.0	0	0	0	catFR2	1	R1036M
1939.988	0.008	1015696	COUNTDOWN_END	n/a	n/a	n/a	n/a	-999	0	16	[0, 0, 0]	n/a	0	1	0	n/a	n/a	0.0	0	0	0	catFR2	1	R1036M
1939.996	1.6	1015700	ORIENT	n/a	n/a	n/a	n/a	-999	0	16	[0, 0, 0]	n/a	0	1	0	n/a	n/a	0.0	0	0	0	catFR2	1	R1036M
1943.408	4.6	1017406	STIM_ON	n/a	n/a	n/a	n/a	-999	0	16	[0, 0, 0]	n/a	1	1	4600	LATD1	LATD2	1000.0	50	230	300	catFR2	1	R1036M
1943.613	1.6	1017508	WORD	n/a	wordpools/wordpool_categorized_EN.txt	BARBIE	Toys	1	0	16	[0, 0, 0]	n/a	1	1	4600	LATD1	LATD2	1000.0	50	230	300	catFR2	1	R1036M
1946.147	1.6	1018775	WORD	n/a	wordpools/wordpool_categorized_EN.txt	FOOTBALL	Toys	2	1	16	[0, 0, 0]	n/a	1	1	4600	LATD1	LATD2	1000.0	50	230	300	catFR2	1	R1036M
1948.597	1.6	1020000	WORD	n/a	wordpools/wordpool_categorized_EN.txt	BEAR	Zoo	3	1	16	[0, 0, 0]	n/a	0	1	0	n/a	n/a	0.0	0	0	0	catFR2	1	R1036M
1951.181	1.6	1021292	WORD	n/a	wordpools/wordpool_categorized_EN.txt	LION	Zoo	4	1	16	[0, 0, 0]	n/a	0	1	0	n/a	n/a	0.0	0	0	0	catFR2	1	R1036M
1953.364	4.6	1022384	STIM_ON	n/a	n/a	n/a	n/a	-999	0	16	[0, 0, 0]	n/a	1	1	4600	LATD1	LATD2	1000.0	50	230	300	catFR2	1	R1036M
1953.581	1.6	1022492	WORD	n/a	wordpools/wordpool_categorized_EN.txt	ROBIN	Birds	5	0	16	[0, 0, 0]	n/a	1	1	4600	LATD1	LATD2	1000.0	50	230	300	catFR2	1	R1036M
1956.099	1.6	1023751	WORD	n/a	wordpools/wordpool_categorized_EN.txt	GOOSE	Birds	6	0	16	[0, 0, 0]	n/a	1	1	4600	LATD1	LATD2	1000.0	50	230	300	catFR2	1	R1036M
1958.682	1.6	1025043	WORD	n/a	wordpools/wordpool_categorized_EN.txt	PANDA	Zoo	7	0	16	[0, 0, 0]	n/a	0	1	0	n/a	n/a	0.0	0	0	0	catFR2	1	R1036M
1961.166	1.6	1026284	WORD	n/a	wordpools/wordpool_categorized_EN.txt	ELEPHANT	Zoo	8	0	16	[0, 0, 0]	n/a	0	1	0	n/a	n/a	0.0	0	0	0	catFR2	1	R1036M
1963.573	4.6	1027488	STIM_ON	n/a	n/a	n/a	n/a	-999	0	16	[0, 0, 0]	n/a	1	1	4600	LATD1	LATD2	1000.0	50	230	300	catFR2	1	R1036M
1963.783	1.6	1027593	WORD	n/a	wordpools/wordpool_categorized_EN.txt	BASKETBALL	Toys	9	0	16	[0, 0, 0]	n/a	1	1	4600	LATD1	LATD2	1000.0	50	230	300	catFR2	1	R1036M
1966.251	1.6	1028827	WORD	n/a	wordpools/wordpool_categorized_EN.txt	BASEBALL	Toys	10	1	16	[0, 0, 0]	n/a	1	1	4600	LATD1	LATD2	1000.0	50	230	300	catFR2	1	R1036M
1968.801	1.6	1030102	WORD	n/a	wordpools/wordpool_categorized_EN.txt	DOVE	Birds	11	1	16	[0, 0, 0]	n/a	0	1	0	n/a	n/a	0.0	0	0	0	catFR2	1	R1036M
1971.302	1.6	1031352	WORD	n/a	wordpools/wordpool_categorized_EN.txt	CROW	Birds	12	0	16	[0, 0, 0]	n/a	0	1	0	n/a	n/a	0.0	0	0	0	catFR2	1	R1036M
1972.919	0.001	1032161	DISTRACT_START	n/a	n/a	n/a	n/a	-999	0	16	[0, 0, 0]	n/a	0	1	0	n/a	n/a	0.0	0	0	0	catFR2	1	R1036M
1972.92	0.015	1032161	START	n/a	n/a	n/a	n/a	-999	0	16	[-999, -999, -999]	n/a	0	1	0	n/a	n/a	0.0	0	0	0	catFR2	1	R1036M
1972.935	5.268	1032169	PROB	5.237	n/a	n/a	n/a	-999	0	16	[7, 7, 7]	21	0	1	0	n/a	n/a	0.0	0	0	0	catFR2	1	R1036M
1978.203	7.401	1034802	PROB	7.377	n/a	n/a	n/a	-999	0	16	[3, 4, 5]	12	0	1	0	n/a	n/a	0.0	0	0	0	catFR2	1	R1036M
1985.604	6.736	1038503	PROB	6.712	n/a	n/a	n/a	-999	0	16	[7, 7, 3]	17	0	1	0	n/a	n/a	0.0	0	0	0	catFR2	1	R1036M
1992.34	5.105	1041871	PROB	5.105	n/a	n/a	n/a	-999	0	16	[4, 1, 2]	7	0	1	0	n/a	n/a	0.0	0	0	0	catFR2	1	R1036M
1997.445	0.012	1044423	STOP	n/a	n/a	n/a	n/a	-999	0	16	[-999, -999, -999]	n/a	0	1	0	n/a	n/a	0.0	0	0	0	catFR2	1	R1036M
1997.457	1.167	1044429	DISTRACT_END	n/a	n/a	n/a	n/a	-999	0	16	[0, 0, 0]	n/a	0	1	0	n/a	n/a	0.0	0	0	0	catFR2	1	R1036M
1998.624	2.267	1045012	REC_START	n/a	n/a	n/a	n/a	-999	0	16	[0, 0, 0]	n/a	0	1	0	n/a	n/a	0.0	0	0	0	catFR2	1	R1036M
2000.891	2.94	1046146	REC_WORD	2.267	n/a	FOOTBALL	Toys	2	1	16	[0, 0, 0]	n/a	0	1	0	n/a	n/a	0.0	0	0	0	catFR2	1	R1036M
2003.831	2.155	1047616	REC_WORD	5.207	n/a	LION	Zoo	4	1	16	[0, 0, 0]	n/a	0	1	0	n/a	n/a	0.0	0	0	0	catFR2	1	R1036M
2005.986	2.194	1048693	REC_WORD	7.362	n/a	BEAR	Zoo	3	1	16	[0, 0, 0]	n/a	0	1	0	n/a	n/a	0.0	0	0	0	catFR2	1	R1036M
2008.18	14.877	1049790	REC_WORD	9.556	n/a	BASEBALL	Toys	10	1	16	[0, 0, 0]	n/a	0	1	0	n/a	n/a	0.0	0	0	0	catFR2	1	R1036M
2023.057	2.6	1057228	REC_WORD	24.433	n/a	DOVE	Birds	11	1	16	[0, 0, 0]	n/a	0	1	0	n/a	n/a	0.0	0	0	0	catFR2	1	R1036M
2025.657	2.979	1058528	REC_WORD	27.033	n/a	DOVE	Birds	11	1	16	[0, 0, 0]	n/a	0	1	0	n/a	n/a	0.0	0	0	0	catFR2	1	R1036M
2028.636	12.363	1060018	REC_END	n/a	n/a	n/a	n/a	-999	0	16	[0, 0, 0]	n/a	0	1	0	n/a	n/a	0.0	0	0	0	catFR2	1	R1036M
2040.999	0.0	1066199	TRIAL	n/a	n/a	n/a	n/a	-999	0	17	[0, 0, 0]	n/a	0	1	0	n/a	n/a	0.0	0	0	0	catFR2	1	R1036M
2040.999	10.0	1066199	COUNTDOWN_START	n/a	n/a	n/a	n/a	-999	0	17	[0, 0, 0]	n/a	0	1	0	n/a	n/a	0.0	0	0	0	catFR2	1	R1036M
2051.427	0.008	1071412	COUNTDOWN_END	n/a	n/a	n/a	n/a	-999	0	17	[0, 0, 0]	n/a	0	1	0	n/a	n/a	0.0	0	0	0	catFR2	1	R1036M
2051.435	1.6	1071416	ORIENT	n/a	n/a	n/a	n/a	-999	0	17	[0, 0, 0]	n/a	0	1	0	n/a	n/a	0.0	0	0	0	catFR2	1	R1036M
2054.945	4.6	1073171	STIM_ON	n/a	n/a	n/a	n/a	-999	0	17	[0, 0, 0]	n/a	1	1	4600	LATD1	LATD2	1000.0	50	230	300	catFR2	1	R1036M
2055.151	1.6	1073274	WORD	n/a	wordpools/wordpool_categorized_EN.txt	PRINTER	Electronics	1	0	17	[0, 0, 0]	n/a	1	1	4600	LATD1	LATD2	1000.0	50	230	300	catFR2	1	R1036M
2057.735	1.6	1074566	WORD	n/a	wordpools/wordpool_categorized_EN.txt	STEREO	Electronics	2	0	17	[0, 0, 0]	n/a	1	1	4600	LATD1	LATD2	1000.0	50	230	300	catFR2	1	R1036M
2060.169	1.6	1075783	WORD	n/a	wordpools/wordpool_categorized_EN.txt	PENCIL	OfficeSupplies	3	1	17	[0, 0, 0]	n/a	0	1	0	n/a	n/a	0.0	0	0	0	catFR2	1	R1036M
2062.603	1.6	1077000	WORD	n/a	wordpools/wordpool_categorized_EN.txt	FOLDER	OfficeSupplies	4	0	17	[0, 0, 0]	n/a	0	1	0	n/a	n/a	0.0	0	0	0	catFR2	1	R1036M
2064.957	4.6	1078177	STIM_ON	n/a	n/a	n/a	n/a	-999	0	17	[0, 0, 0]	n/a	1	1	4600	LATD1	LATD2	1000.0	50	230	300	catFR2	1	R1036M
2065.17	1.6	1078283	WORD	n/a	wordpools/wordpool_categorized_EN.txt	VIOLET	Flowers	5	0	17	[0, 0, 0]	n/a	1	1	4600	LATD1	LATD2	1000.0	50	230	300	catFR2	1	R1036M
2067.57	1.6	1079483	WORD	n/a	wordpools/wordpool_categorized_EN.txt	LILAC	Flowers	6	1	17	[0, 0, 0]	n/a	1	1	4600	LATD1	LATD2	1000.0	50	230	300	catFR2	1	R1036M
2070.021	1.6	1080709	WORD	n/a	wordpools/wordpool_categorized_EN.txt	RADIO	Electronics	7	0	17	[0, 0, 0]	n/a	0	1	0	n/a	n/a	0.0	0	0	0	catFR2	1	R1036M
2072.521	1.6	1081959	WORD	n/a	wordpools/wordpool_categorized_EN.txt	MICROWAVE	Electronics	8	0	17	[0, 0, 0]	n/a	0	1	0	n/a	n/a	0.0	0	0	0	catFR2	1	R1036M
2074.857	4.6	1083127	STIM_ON	n/a	n/a	n/a	n/a	-999	0	17	[0, 0, 0]	n/a	1	1	4600	LATD1	LATD2	1000.0	50	230	300	catFR2	1	R1036M
2075.072	1.6	1083234	WORD	n/a	wordpools/wordpool_categorized_EN.txt	ROSE	Flowers	9	1	17	[0, 0, 0]	n/a	1	1	4600	LATD1	LATD2	1000.0	50	230	300	catFR2	1	R1036M
2077.489	1.6	1084443	WORD	n/a	wordpools/wordpool_categorized_EN.txt	LILY	Flowers	10	1	17	[0, 0, 0]	n/a	1	1	4600	LATD1	LATD2	1000.0	50	230	300	catFR2	1	R1036M
2079.973	1.6	1085685	WORD	n/a	wordpools/wordpool_categorized_EN.txt	NOTEBOOK	OfficeSupplies	11	1	17	[0, 0, 0]	n/a	0	1	0	n/a	n/a	0.0	0	0	0	catFR2	1	R1036M
2082.408	1.6	1086902	WORD	n/a	wordpools/wordpool_categorized_EN.txt	PEN	OfficeSupplies	12	1	17	[0, 0, 0]	n/a	0	1	0	n/a	n/a	0.0	0	0	0	catFR2	1	R1036M
2084.023	0.001	1087709	DISTRACT_START	n/a	n/a	n/a	n/a	-999	0	17	[0, 0, 0]	n/a	0	1	0	n/a	n/a	0.0	0	0	0	catFR2	1	R1036M
2084.024	0.016	1087710	START	n/a	n/a	n/a	n/a	-999	0	17	[-999, -999, -999]	n/a	0	1	0	n/a	n/a	0.0	0	0	0	catFR2	1	R1036M
2084.04	10.536	1087718	PROB	10.508	n/a	n/a	n/a	-999	0	17	[3, 5, 6]	15	0	1	0	n/a	n/a	0.0	0	0	0	catFR2	1	R1036M
2094.576	5.785	1092986	PROB	5.756	n/a	n/a	n/a	-999	0	17	[9, 7, 7]	23	0	1	0	n/a	n/a	0.0	0	0	0	catFR2	1	R1036M
2100.361	6.898	1095878	PROB	6.898	n/a	n/a	n/a	-999	0	17	[5, 9, 4]	14	0	1	0	n/a	n/a	0.0	0	0	0	catFR2	1	R1036M
2107.259	0.019	1099327	STOP	n/a	n/a	n/a	n/a	-999	0	17	[-999, -999, -999]	n/a	0	1	0	n/a	n/a	0.0	0	0	0	catFR2	1	R1036M
2107.278	1.085	1099336	DISTRACT_END	n/a	n/a	n/a	n/a	-999	0	17	[0, 0, 0]	n/a	0	1	0	n/a	n/a	0.0	0	0	0	catFR2	1	R1036M
2108.363	0.779	1099879	REC_START	n/a	n/a	n/a	n/a	-999	0	17	[0, 0, 0]	n/a	0	1	0	n/a	n/a	0.0	0	0	0	catFR2	1	R1036M
2109.142	2.87	1100268	REC_WORD	0.779	n/a	PENCIL	OfficeSupplies	3	1	17	[0, 0, 0]	n/a	0	1	0	n/a	n/a	0.0	0	0	0	catFR2	1	R1036M
2112.012	2.096	1101703	REC_WORD	3.649	n/a	LILAC	Flowers	6	1	17	[0, 0, 0]	n/a	0	1	0	n/a	n/a	0.0	0	0	0	catFR2	1	R1036M
2114.108	3.706	1102751	REC_WORD	5.745	n/a	ROSE	Flowers	9	1	17	[0, 0, 0]	n/a	0	1	0	n/a	n/a	0.0	0	0	0	catFR2	1	R1036M
2117.814	3.935	1104604	REC_WORD	9.451	n/a	LILY	Flowers	10	1	17	[0, 0, 0]	n/a	0	1	0	n/a	n/a	0.0	0	0	0	catFR2	1	R1036M
2121.749	9.593	1106571	REC_WORD	13.386	n/a	RULER	n/a	-999	0	17	[0, 0, 0]	n/a	0	1	0	n/a	n/a	0.0	0	0	0	catFR2	1	R1036M
2131.342	3.888	1111368	REC_WORD	22.979	n/a	NOTEBOOK	OfficeSupplies	11	1	17	[0, 0, 0]	n/a	0	1	0	n/a	n/a	0.0	0	0	0	catFR2	1	R1036M
2135.23	3.148	1113312	REC_WORD	26.867	n/a	PEN	OfficeSupplies	12	1	17	[0, 0, 0]	n/a	0	1	0	n/a	n/a	0.0	0	0	0	catFR2	1	R1036M
2138.378	33.763	1114885	REC_END	n/a	n/a	n/a	n/a	-999	0	17	[0, 0, 0]	n/a	0	1	0	n/a	n/a	0.0	0	0	0	catFR2	1	R1036M
2172.141	0.0	1131766	TRIAL	n/a	n/a	n/a	n/a	-999	0	18	[0, 0, 0]	n/a	0	1	0	n/a	n/a	0.0	0	0	0	catFR2	1	R1036M
2172.141	10.0	1131766	COUNTDOWN_START	n/a	n/a	n/a	n/a	-999	0	18	[0, 0, 0]	n/a	0	1	0	n/a	n/a	0.0	0	0	0	catFR2	1	R1036M
2182.569	0.007	1136980	COUNTDOWN_END	n/a	n/a	n/a	n/a	-999	0	18	[0, 0, 0]	n/a	0	1	0	n/a	n/a	0.0	0	0	0	catFR2	1	R1036M
2182.576	1.6	1136983	ORIENT	n/a	n/a	n/a	n/a	-999	0	18	[0, 0, 0]	n/a	0	1	0	n/a	n/a	0.0	0	0	0	catFR2	1	R1036M
2186.127	1.6	1138759	WORD	n/a	wordpools/wordpool_categorized_EN.txt	COOKIE	Desserts	1	0	18	[0, 0, 0]	n/a	0	1	0	n/a	n/a	0.0	0	0	0	catFR2	1	R1036M
2188.594	1.6	1139992	WORD	n/a	wordpools/wordpool_categorized_EN.txt	PUDDING	Desserts	2	0	18	[0, 0, 0]	n/a	0	1	0	n/a	n/a	0.0	0	0	0	catFR2	1	R1036M
2190.847	4.6	1141118	STIM_ON	n/a	n/a	n/a	n/a	-999	0	18	[0, 0, 0]	n/a	1	1	4600	LATD1	LATD2	1000.0	50	230	300	catFR2	1	R1036M
2191.061	1.6	1141225	WORD	n/a	wordpools/wordpool_categorized_EN.txt	PLANKTON	OceanAnimals	3	0	18	[0, 0, 0]	n/a	1	1	4600	LATD1	LATD2	1000.0	50	230	300	catFR2	1	R1036M
2193.528	1.6	1142459	WORD	n/a	wordpools/wordpool_categorized_EN.txt	TURTLE	OceanAnimals	4	0	18	[0, 0, 0]	n/a	1	1	4600	LATD1	LATD2	1000.0	50	230	300	catFR2	1	R1036M
2196.129	1.6	1143759	WORD	n/a	wordpools/wordpool_categorized_EN.txt	GLUE	OfficeSupplies	5	0	18	[0, 0, 0]	n/a	0	1	0	n/a	n/a	0.0	0	0	0	catFR2	1	R1036M
2198.662	1.6	1145026	WORD	n/a	wordpools/wordpool_categorized_EN.txt	STAPLER	OfficeSupplies	6	0	18	[0, 0, 0]	n/a	0	1	0	n/a	n/a	0.0	0	0	0	catFR2	1	R1036M
2201.044	4.6	1146217	STIM_ON	n/a	n/a	n/a	n/a	-999	0	18	[0, 0, 0]	n/a	1	1	4600	LATD1	LATD2	1000.0	50	230	300	catFR2	1	R1036M
2201.246	1.6	1146318	WORD	n/a	wordpools/wordpool_categorized_EN.txt	DOLPHIN	OceanAnimals	7	1	18	[0, 0, 0]	n/a	1	1	4600	LATD1	LATD2	1000.0	50	230	300	catFR2	1	R1036M
2203.763	1.6	1147576	WORD	n/a	wordpools/wordpool_categorized_EN.txt	JELLYFISH	OceanAnimals	8	1	18	[0, 0, 0]	n/a	1	1	4600	LATD1	LATD2	1000.0	50	230	300	catFR2	1	R1036M
2206.348	1.6	1148868	WORD	n/a	wordpools/wordpool_categorized_EN.txt	CHEESECAKE	Desserts	9	0	18	[0, 0, 0]	n/a	0	1	0	n/a	n/a	0.0	0	0	0	catFR2	1	R1036M
2208.731	1.6	1150060	WORD	n/a	wordpools/wordpool_categorized_EN.txt	BROWNIES	Desserts	10	0	18	[0, 0, 0]	n/a	0	1	0	n/a	n/a	0.0	0	0	0	catFR2	1	R1036M
2210.932	4.6	1151160	STIM_ON	n/a	n/a	n/a	n/a	-999	0	18	[0, 0, 0]	n/a	1	1	4600	LATD1	LATD2	1000.0	50	230	300	catFR2	1	R1036M
2211.148	1.6	1151268	WORD	n/a	wordpools/wordpool_categorized_EN.txt	MARKER	OfficeSupplies	11	0	18	[0, 0, 0]	n/a	1	1	4600	LATD1	LATD2	1000.0	50	230	300	catFR2	1	R1036M
2213.765	1.6	1152577	WORD	n/a	wordpools/wordpool_categorized_EN.txt	BINDER	OfficeSupplies	12	1	18	[0, 0, 0]	n/a	1	1	4600	LATD1	LATD2	1000.0	50	230	300	catFR2	1	R1036M
2215.366	0.001	1153377	DISTRACT_START	n/a	n/a	n/a	n/a	-999	0	18	[0, 0, 0]	n/a	0	1	0	n/a	n/a	0.0	0	0	0	catFR2	1	R1036M
2215.367	0.016	1153378	START	n/a	n/a	n/a	n/a	-999	0	18	[-999, -999, -999]	n/a	0	1	0	n/a	n/a	0.0	0	0	0	catFR2	1	R1036M
2215.383	5.567	1153386	PROB	5.532	n/a	n/a	n/a	-999	0	18	[2, 1, 1]	4	0	1	0	n/a	n/a	0.0	0	0	0	catFR2	1	R1036M
2220.95	7.651	1156169	PROB	7.63	n/a	n/a	n/a	-999	0	18	[8, 4, 8]	20	0	1	0	n/a	n/a	0.0	0	0	0	catFR2	1	R1036M
2228.601	11.171	1159994	PROB	11.171	n/a	n/a	n/a	-999	0	18	[8, 5, 4]	17	0	1	0	n/a	n/a	0.0	0	0	0	catFR2	1	R1036M
2239.772	0.015	1165580	STOP	n/a	n/a	n/a	n/a	-999	0	18	[-999, -999, -999]	n/a	0	1	0	n/a	n/a	0.0	0	0	0	catFR2	1	R1036M
2239.787	1.051	1165587	DISTRACT_END	n/a	n/a	n/a	n/a	-999	0	18	[0, 0, 0]	n/a	0	1	0	n/a	n/a	0.0	0	0	0	catFR2	1	R1036M
2240.838	0.999	1166113	REC_START	n/a	n/a	n/a	n/a	-999	0	18	[0, 0, 0]	n/a	0	1	0	n/a	n/a	0.0	0	0	0	catFR2	1	R1036M
2241.837	3.159	1166612	REC_WORD	0.999	n/a	BINDER	OfficeSupplies	12	1	18	[0, 0, 0]	n/a	0	1	0	n/a	n/a	0.0	0	0	0	catFR2	1	R1036M
2244.996	2.659	1168191	REC_WORD	4.158	n/a	PENCIL	n/a	-999	0	18	[0, 0, 0]	n/a	0	1	0	n/a	n/a	0.0	0	0	0	catFR2	1	R1036M
2247.655	2.704	1169521	REC_WORD	6.817	n/a	JELLYFISH	OceanAnimals	8	1	18	[0, 0, 0]	n/a	0	1	0	n/a	n/a	0.0	0	0	0	catFR2	1	R1036M
2250.359	5.918	1170873	REC_WORD	9.521	n/a	DOLPHIN	OceanAnimals	7	1	18	[0, 0, 0]	n/a	0	1	0	n/a	n/a	0.0	0	0	0	catFR2	1	R1036M
2256.277	8.216	1173832	REC_WORD	15.439	n/a	NOTEBOOK	n/a	-999	0	18	[0, 0, 0]	n/a	0	1	0	n/a	n/a	0.0	0	0	0	catFR2	1	R1036M
2264.493	6.354	1177939	REC_WORD	23.655	n/a	TAPE	n/a	-999	0	18	[0, 0, 0]	n/a	0	1	0	n/a	n/a	0.0	0	0	0	catFR2	1	R1036M
2270.847	32.452	1181116	REC_END	n/a	n/a	n/a	n/a	-999	0	18	[0, 0, 0]	n/a	0	1	0	n/a	n/a	0.0	0	0	0	catFR2	1	R1036M
2303.299	10.0	1197341	COUNTDOWN_START	n/a	n/a	n/a	n/a	-999	0	19	[0, 0, 0]	n/a	0	1	0	n/a	n/a	0.0	0	0	0	catFR2	1	R1036M
2303.3	45714.607	1197342	TRIAL	n/a	n/a	n/a	n/a	-999	0	19	[0, 0, 0]	n/a	0	1	0	n/a	n/a	0.0	0	0	0	catFR2	1	R1036M
48017.907	0.0	-1	SESSION_SKIPPED	n/a	n/a	n/a	n/a	-999	0	19	[0, 0, 0]	n/a	0	1	0	n/a	n/a	0.0	0	0	0	catFR2	1	R1036M
