onset	duration	sample	trial_type	response_time	stim_file	item_name	category	serialpos	recalled	list	test	answer	stimulation	stim_list	stim_duration	anode_label	cathode_label	amplitude	pulse_freq	n_pulses	pulse_width	experiment	session	subject
0.0	22.408	228363	SESS_START	n/a	n/a	n/a	n/a	-999	0	-999	[0, 0, 0]	n/a	0	0	0	n/a	n/a	0.0	0	0	0	catFR2	0	R1028M
22.408	10.0	239566	COUNTDOWN_START	n/a	n/a	n/a	n/a	-999	0	-999	[0, 0, 0]	n/a	0	0	0	n/a	n/a	0.0	0	0	0	catFR2	0	R1028M
32.836	3.909	244779	COUNTDOWN_END	n/a	n/a	n/a	n/a	-999	0	-999	[0, 0, 0]	n/a	0	0	0	n/a	n/a	0.0	0	0	0	catFR2	0	R1028M
36.745	1.6	246734	PRACTICE_WORD	n/a	n/a	ATTIC	n/a	-999	0	1	[0, 0, 0]	n/a	0	0	0	n/a	n/a	0.0	0	0	0	catFR2	0	R1028M
39.128	1.6	247925	PRACTICE_WORD	n/a	n/a	WAGON	n/a	-999	0	2	[0, 0, 0]	n/a	0	0	0	n/a	n/a	0.0	0	0	0	catFR2	0	R1028M
41.529	1.6	249126	PRACTICE_WORD	n/a	n/a	TONGUE	n/a	-999	0	3	[0, 0, 0]	n/a	0	0	0	n/a	n/a	0.0	0	0	0	catFR2	0	R1028M
43.946	1.6	250334	PRACTICE_WORD	n/a	n/a	CHEST	n/a	-999	0	4	[0, 0, 0]	n/a	0	0	0	n/a	n/a	0.0	0	0	0	catFR2	0	R1028M
46.429	1.6	251575	PRACTICE_WORD	n/a	n/a	IRON	n/a	-999	0	5	[0, 0, 0]	n/a	0	0	0	n/a	n/a	0.0	0	0	0	catFR2	0	R1028M
48.93	1.6	252826	PRACTICE_WORD	n/a	n/a	BEAM	n/a	-999	0	6	[0, 0, 0]	n/a	0	0	0	n/a	n/a	0.0	0	0	0	catFR2	0	R1028M
51.531	1.6	254126	PRACTICE_WORD	n/a	n/a	CAMEL	n/a	-999	0	7	[0, 0, 0]	n/a	0	0	0	n/a	n/a	0.0	0	0	0	catFR2	0	R1028M
54.048	1.6	255384	PRACTICE_WORD	n/a	n/a	FLOOD	n/a	-999	0	8	[0, 0, 0]	n/a	0	0	0	n/a	n/a	0.0	0	0	0	catFR2	0	R1028M
56.649	1.6	256685	PRACTICE_WORD	n/a	n/a	RING	n/a	-999	0	9	[0, 0, 0]	n/a	0	0	0	n/a	n/a	0.0	0	0	0	catFR2	0	R1028M
59.132	1.6	257926	PRACTICE_WORD	n/a	n/a	COTTON	n/a	-999	0	10	[0, 0, 0]	n/a	0	0	0	n/a	n/a	0.0	0	0	0	catFR2	0	R1028M
61.55	1.6	259135	PRACTICE_WORD	n/a	n/a	WATCH	n/a	-999	0	11	[0, 0, 0]	n/a	0	0	0	n/a	n/a	0.0	0	0	0	catFR2	0	R1028M
64.05	1.6	260385	PRACTICE_WORD	n/a	n/a	RHINO	n/a	-999	0	12	[0, 0, 0]	n/a	0	0	0	n/a	n/a	0.0	0	0	0	catFR2	0	R1028M
65.667	0.001	261193	PRACTICE_DISTRACT_START	n/a	n/a	n/a	n/a	-999	0	-999	[0, 0, 0]	n/a	0	0	0	n/a	n/a	0.0	0	0	0	catFR2	0	R1028M
65.668	0.016	261194	START	n/a	n/a	n/a	n/a	-999	0	-1	[-999, -999, -999]	n/a	0	-999	0	n/a	n/a	0.0	0	0	0	catFR2	0	R1028M
65.684	3.583	261202	PROB	3.554	n/a	n/a	n/a	-999	0	-1	[4, 6, 3]	13	0	-999	0	n/a	n/a	0.0	0	0	0	catFR2	0	R1028M
69.267	2.602	262993	PROB	2.58	n/a	n/a	n/a	-999	0	-1	[4, 3, 7]	14	0	-999	0	n/a	n/a	0.0	0	0	0	catFR2	0	R1028M
71.869	3.584	264294	PROB	3.561	n/a	n/a	n/a	-999	0	-1	[5, 7, 3]	15	0	-999	0	n/a	n/a	0.0	0	0	0	catFR2	0	R1028M
75.453	2.899	266086	PROB	2.873	n/a	n/a	n/a	-999	0	-1	[4, 1, 1]	6	0	-999	0	n/a	n/a	0.0	0	0	0	catFR2	0	R1028M
78.352	2.934	267535	PROB	2.902	n/a	n/a	n/a	-999	0	-1	[5, 5, 9]	19	0	-999	0	n/a	n/a	0.0	0	0	0	catFR2	0	R1028M
81.286	3.834	269002	PROB	3.8	n/a	n/a	n/a	-999	0	-1	[8, 3, 9]	20	0	-999	0	n/a	n/a	0.0	0	0	0	catFR2	0	R1028M
85.12	2.814	270919	PROB	2.814	n/a	n/a	n/a	-999	0	-1	[1, 5, 2]	8	0	-999	0	n/a	n/a	0.0	0	0	0	catFR2	0	R1028M
87.934	0.003	272326	STOP	n/a	n/a	n/a	n/a	-999	0	-1	[-999, -999, -999]	n/a	0	-999	0	n/a	n/a	0.0	0	0	0	catFR2	0	R1028M
87.937	0.587	272327	PRACTICE_DISTRACT_END	n/a	n/a	n/a	n/a	-999	0	-999	[0, 0, 0]	n/a	0	0	0	n/a	n/a	0.0	0	0	0	catFR2	0	R1028M
88.524	30.514	272621	PRACTICE_REC_START	n/a	n/a	n/a	n/a	-999	0	-999	[0, 0, 0]	n/a	0	0	0	n/a	n/a	0.0	0	0	0	catFR2	0	R1028M
119.038	34.996	287876	PRACTICE_REC_END	n/a	n/a	n/a	n/a	-999	0	-999	[0, 0, 0]	n/a	0	0	0	n/a	n/a	0.0	0	0	0	catFR2	0	R1028M
154.034	0.0	305372	TRIAL	n/a	n/a	n/a	n/a	-999	0	1	[0, 0, 0]	n/a	0	1	0	n/a	n/a	0.0	0	0	0	catFR2	0	R1028M
154.034	10.0	305372	COUNTDOWN_START	n/a	n/a	n/a	n/a	-999	0	1	[0, 0, 0]	n/a	0	1	0	n/a	n/a	0.0	0	0	0	catFR2	0	R1028M
164.462	0.008	310586	COUNTDOWN_END	n/a	n/a	n/a	n/a	-999	0	1	[0, 0, 0]	n/a	0	1	0	n/a	n/a	0.0	0	0	0	catFR2	0	R1028M
164.47	1.6	310590	ORIENT	n/a	n/a	n/a	n/a	-999	0	1	[0, 0, 0]	n/a	0	1	0	n/a	n/a	0.0	0	0	0	catFR2	0	R1028M
168.07	4.6	312389	STIM_ON	n/a	n/a	n/a	n/a	-999	0	1	[0, 0, 0]	n/a	1	1	4600	RTG1	RTG10	1500.0	50	230	300	catFR2	0	R1028M
168.286	1.6	312497	WORD	n/a	wordpools/wordpool_categorized_EN.txt	PUZZLE	Toys	1	1	1	[0, 0, 0]	n/a	1	1	4600	RTG1	RTG10	1500.0	50	230	300	catFR2	0	R1028M
170.821	1.6	313765	WORD	n/a	wordpools/wordpool_categorized_EN.txt	MARBLES	Toys	2	1	1	[0, 0, 0]	n/a	1	1	4600	RTG1	RTG10	1500.0	50	230	300	catFR2	0	R1028M
173.321	1.6	315015	WORD	n/a	wordpools/wordpool_categorized_EN.txt	ATTIC	Building	3	1	1	[0, 0, 0]	n/a	0	1	0	n/a	n/a	0.0	0	0	0	catFR2	0	R1028M
175.889	1.6	316299	WORD	n/a	wordpools/wordpool_categorized_EN.txt	DOOR	Building	4	1	1	[0, 0, 0]	n/a	0	1	0	n/a	n/a	0.0	0	0	0	catFR2	0	R1028M
178.095	4.6	317401	STIM_ON	n/a	n/a	n/a	n/a	-999	0	1	[0, 0, 0]	n/a	1	1	4600	RTG1	RTG10	1500.0	50	230	300	catFR2	0	R1028M
178.305	1.6	317506	WORD	n/a	wordpools/wordpool_categorized_EN.txt	LOBSTER	OceanAnimals	5	1	1	[0, 0, 0]	n/a	1	1	4600	RTG1	RTG10	1500.0	50	230	300	catFR2	0	R1028M
180.857	1.6	318782	WORD	n/a	wordpools/wordpool_categorized_EN.txt	PLANKTON	OceanAnimals	6	0	1	[0, 0, 0]	n/a	1	1	4600	RTG1	RTG10	1500.0	50	230	300	catFR2	0	R1028M
183.289	1.6	319998	WORD	n/a	wordpools/wordpool_categorized_EN.txt	HALLWAY	Building	7	1	1	[0, 0, 0]	n/a	0	1	0	n/a	n/a	0.0	0	0	0	catFR2	0	R1028M
185.741	1.6	321224	WORD	n/a	wordpools/wordpool_categorized_EN.txt	CEILING	Building	8	1	1	[0, 0, 0]	n/a	0	1	0	n/a	n/a	0.0	0	0	0	catFR2	0	R1028M
187.956	4.6	322331	STIM_ON	n/a	n/a	n/a	n/a	-999	0	1	[0, 0, 0]	n/a	1	1	4600	RTG1	RTG10	1500.0	50	230	300	catFR2	0	R1028M
188.174	1.6	322440	WORD	n/a	wordpools/wordpool_categorized_EN.txt	DOLLHOUSE	Toys	9	1	1	[0, 0, 0]	n/a	1	1	4600	RTG1	RTG10	1500.0	50	230	300	catFR2	0	R1028M
190.692	1.6	323699	WORD	n/a	wordpools/wordpool_categorized_EN.txt	BLOCKS	Toys	10	0	1	[0, 0, 0]	n/a	1	1	4600	RTG1	RTG10	1500.0	50	230	300	catFR2	0	R1028M
193.241	1.6	324974	WORD	n/a	wordpools/wordpool_categorized_EN.txt	OYSTER	OceanAnimals	11	1	1	[0, 0, 0]	n/a	0	1	0	n/a	n/a	0.0	0	0	0	catFR2	0	R1028M
195.693	1.6	326200	WORD	n/a	wordpools/wordpool_categorized_EN.txt	DOLPHIN	OceanAnimals	12	0	1	[0, 0, 0]	n/a	0	1	0	n/a	n/a	0.0	0	0	0	catFR2	0	R1028M
197.309	0.001	327007	DISTRACT_START	n/a	n/a	n/a	n/a	-999	0	1	[0, 0, 0]	n/a	0	1	0	n/a	n/a	0.0	0	0	0	catFR2	0	R1028M
197.31	0.015	327008	START	n/a	n/a	n/a	n/a	-999	0	1	[-999, -999, -999]	n/a	0	1	0	n/a	n/a	0.0	0	0	0	catFR2	0	R1028M
197.325	5.402	327015	PROB	5.37	n/a	n/a	n/a	-999	0	1	[8, 7, 2]	17	0	1	0	n/a	n/a	0.0	0	0	0	catFR2	0	R1028M
202.727	4.835	329716	PROB	4.8	n/a	n/a	n/a	-999	0	1	[4, 1, 8]	13	0	1	0	n/a	n/a	0.0	0	0	0	catFR2	0	R1028M
207.562	1.866	332133	PROB	1.836	n/a	n/a	n/a	-999	0	1	[9, 1, 2]	12	0	1	0	n/a	n/a	0.0	0	0	0	catFR2	0	R1028M
209.428	2.368	333066	PROB	2.347	n/a	n/a	n/a	-999	0	1	[5, 5, 5]	15	0	1	0	n/a	n/a	0.0	0	0	0	catFR2	0	R1028M
211.796	6.482	334250	PROB	6.482	n/a	n/a	n/a	-999	0	1	[5, 8, 9]	22	0	1	0	n/a	n/a	0.0	0	0	0	catFR2	0	R1028M
218.278	0.018	337491	STOP	n/a	n/a	n/a	n/a	-999	0	1	[-999, -999, -999]	n/a	0	1	0	n/a	n/a	0.0	0	0	0	catFR2	0	R1028M
218.296	1.152	337500	DISTRACT_END	n/a	n/a	n/a	n/a	-999	0	1	[0, 0, 0]	n/a	0	1	0	n/a	n/a	0.0	0	0	0	catFR2	0	R1028M
219.448	1.581	338076	REC_START	n/a	n/a	n/a	n/a	-999	0	1	[0, 0, 0]	n/a	0	1	0	n/a	n/a	0.0	0	0	0	catFR2	0	R1028M
221.029	0.599	338866	REC_WORD	1.581	n/a	ATTIC	Building	3	1	1	[0, 0, 0]	n/a	0	1	0	n/a	n/a	0.0	0	0	0	catFR2	0	R1028M
221.628	0.428	339166	REC_WORD	2.18	n/a	DOOR	Building	4	1	1	[0, 0, 0]	n/a	0	1	0	n/a	n/a	0.0	0	0	0	catFR2	0	R1028M
222.056	2.315	339380	REC_WORD	2.608	n/a	CEILING	Building	8	1	1	[0, 0, 0]	n/a	0	1	0	n/a	n/a	0.0	0	0	0	catFR2	0	R1028M
224.371	1.871	340537	REC_WORD	4.923	n/a	DOLLHOUSE	Toys	9	1	1	[0, 0, 0]	n/a	0	1	0	n/a	n/a	0.0	0	0	0	catFR2	0	R1028M
226.242	0.83	341472	REC_WORD	6.794	n/a	PUZZLE	Toys	1	1	1	[0, 0, 0]	n/a	0	1	0	n/a	n/a	0.0	0	0	0	catFR2	0	R1028M
227.072	1.199	341887	REC_WORD	7.624	n/a	MARBLES	Toys	2	1	1	[0, 0, 0]	n/a	0	1	0	n/a	n/a	0.0	0	0	0	catFR2	0	R1028M
228.271	1.063	342487	REC_WORD	8.823	n/a	LOBSTER	OceanAnimals	5	1	1	[0, 0, 0]	n/a	0	1	0	n/a	n/a	0.0	0	0	0	catFR2	0	R1028M
229.334	3.458	343018	REC_WORD	9.886	n/a	OYSTER	OceanAnimals	11	1	1	[0, 0, 0]	n/a	0	1	0	n/a	n/a	0.0	0	0	0	catFR2	0	R1028M
232.792	13.543	344747	REC_WORD	13.344	n/a	HALLWAY	Building	7	1	1	[0, 0, 0]	n/a	0	1	0	n/a	n/a	0.0	0	0	0	catFR2	0	R1028M
246.335	3.123	351518	REC_WORD	26.887	n/a	PUZZLE	Toys	1	1	1	[0, 0, 0]	n/a	0	1	0	n/a	n/a	0.0	0	0	0	catFR2	0	R1028M
249.458	15.398	353079	REC_END	n/a	n/a	n/a	n/a	-999	0	1	[0, 0, 0]	n/a	0	1	0	n/a	n/a	0.0	0	0	0	catFR2	0	R1028M
264.856	0.0	360777	TRIAL	n/a	n/a	n/a	n/a	-999	0	2	[0, 0, 0]	n/a	0	1	0	n/a	n/a	0.0	0	0	0	catFR2	0	R1028M
264.856	10.0	360777	COUNTDOWN_START	n/a	n/a	n/a	n/a	-999	0	2	[0, 0, 0]	n/a	0	1	0	n/a	n/a	0.0	0	0	0	catFR2	0	R1028M
275.284	0.006	365991	COUNTDOWN_END	n/a	n/a	n/a	n/a	-999	0	2	[0, 0, 0]	n/a	0	1	0	n/a	n/a	0.0	0	0	0	catFR2	0	R1028M
275.29	1.6	365994	ORIENT	n/a	n/a	n/a	n/a	-999	0	2	[0, 0, 0]	n/a	0	1	0	n/a	n/a	0.0	0	0	0	catFR2	0	R1028M
278.85	4.6	367774	STIM_ON	n/a	n/a	n/a	n/a	-999	0	2	[0, 0, 0]	n/a	1	1	4600	RTG1	RTG10	1500.0	50	230	300	catFR2	0	R1028M
279.058	1.6	367878	WORD	n/a	wordpools/wordpool_categorized_EN.txt	WASHER	Appliances	1	0	2	[0, 0, 0]	n/a	1	1	4600	RTG1	RTG10	1500.0	50	230	300	catFR2	0	R1028M
281.659	1.6	369178	WORD	n/a	wordpools/wordpool_categorized_EN.txt	TOASTER	Appliances	2	1	2	[0, 0, 0]	n/a	1	1	4600	RTG1	RTG10	1500.0	50	230	300	catFR2	0	R1028M
284.175	1.6	370436	WORD	n/a	wordpools/wordpool_categorized_EN.txt	MARIGOLD	Flowers	3	1	2	[0, 0, 0]	n/a	0	1	0	n/a	n/a	0.0	0	0	0	catFR2	0	R1028M
286.71	1.6	371703	WORD	n/a	wordpools/wordpool_categorized_EN.txt	TULIP	Flowers	4	1	2	[0, 0, 0]	n/a	0	1	0	n/a	n/a	0.0	0	0	0	catFR2	0	R1028M
289.113	4.6	372905	STIM_ON	n/a	n/a	n/a	n/a	-999	0	2	[0, 0, 0]	n/a	1	1	4600	RTG1	RTG10	1500.0	50	230	300	catFR2	0	R1028M
289.326	1.6	373011	WORD	n/a	wordpools/wordpool_categorized_EN.txt	DRESS	Clothing	5	1	2	[0, 0, 0]	n/a	1	1	4600	RTG1	RTG10	1500.0	50	230	300	catFR2	0	R1028M
291.944	1.6	374320	WORD	n/a	wordpools/wordpool_categorized_EN.txt	UNDERWEAR	Clothing	6	1	2	[0, 0, 0]	n/a	1	1	4600	RTG1	RTG10	1500.0	50	230	300	catFR2	0	R1028M
294.528	1.6	375612	WORD	n/a	wordpools/wordpool_categorized_EN.txt	VACUUM	Appliances	7	0	2	[0, 0, 0]	n/a	0	1	0	n/a	n/a	0.0	0	0	0	catFR2	0	R1028M
296.961	1.6	376828	WORD	n/a	wordpools/wordpool_categorized_EN.txt	MIXER	Appliances	8	1	2	[0, 0, 0]	n/a	0	1	0	n/a	n/a	0.0	0	0	0	catFR2	0	R1028M
299.185	4.6	377940	STIM_ON	n/a	n/a	n/a	n/a	-999	0	2	[0, 0, 0]	n/a	1	1	4600	RTG1	RTG10	1500.0	50	230	300	catFR2	0	R1028M
299.395	1.6	378045	WORD	n/a	wordpools/wordpool_categorized_EN.txt	SKIRT	Clothing	9	1	2	[0, 0, 0]	n/a	1	1	4600	RTG1	RTG10	1500.0	50	230	300	catFR2	0	R1028M
301.946	1.6	379321	WORD	n/a	wordpools/wordpool_categorized_EN.txt	PANTS	Clothing	10	1	2	[0, 0, 0]	n/a	1	1	4600	RTG1	RTG10	1500.0	50	230	300	catFR2	0	R1028M
304.564	1.6	380629	WORD	n/a	wordpools/wordpool_categorized_EN.txt	SUNFLOWER	Flowers	11	1	2	[0, 0, 0]	n/a	0	1	0	n/a	n/a	0.0	0	0	0	catFR2	0	R1028M
307.013	1.6	381854	WORD	n/a	wordpools/wordpool_categorized_EN.txt	ROSE	Flowers	12	0	2	[0, 0, 0]	n/a	0	1	0	n/a	n/a	0.0	0	0	0	catFR2	0	R1028M
308.614	0.001	382654	DISTRACT_START	n/a	n/a	n/a	n/a	-999	0	2	[0, 0, 0]	n/a	0	1	0	n/a	n/a	0.0	0	0	0	catFR2	0	R1028M
308.615	0.016	382655	START	n/a	n/a	n/a	n/a	-999	0	2	[-999, -999, -999]	n/a	0	1	0	n/a	n/a	0.0	0	0	0	catFR2	0	R1028M
308.631	3.901	382663	PROB	3.864	n/a	n/a	n/a	-999	0	2	[4, 1, 3]	8	0	1	0	n/a	n/a	0.0	0	0	0	catFR2	0	R1028M
312.532	3.633	384613	PROB	3.61	n/a	n/a	n/a	-999	0	2	[4, 9, 4]	17	0	1	0	n/a	n/a	0.0	0	0	0	catFR2	0	R1028M
316.165	7.486	386429	PROB	7.45	n/a	n/a	n/a	-999	0	2	[5, 9, 8]	22	0	1	0	n/a	n/a	0.0	0	0	0	catFR2	0	R1028M
323.651	2.633	390172	PROB	2.611	n/a	n/a	n/a	-999	0	2	[3, 7, 8]	18	0	1	0	n/a	n/a	0.0	0	0	0	catFR2	0	R1028M
326.284	2.706	391488	PROB	2.706	n/a	n/a	n/a	-999	0	2	[6, 2, 8]	16	0	1	0	n/a	n/a	0.0	0	0	0	catFR2	0	R1028M
328.99	0.011	392841	STOP	n/a	n/a	n/a	n/a	-999	0	2	[-999, -999, -999]	n/a	0	1	0	n/a	n/a	0.0	0	0	0	catFR2	0	R1028M
329.001	1.234	392847	DISTRACT_END	n/a	n/a	n/a	n/a	-999	0	2	[0, 0, 0]	n/a	0	1	0	n/a	n/a	0.0	0	0	0	catFR2	0	R1028M
330.235	2.18	393464	REC_START	n/a	n/a	n/a	n/a	-999	0	2	[0, 0, 0]	n/a	0	1	0	n/a	n/a	0.0	0	0	0	catFR2	0	R1028M
332.415	1.044	394553	REC_WORD	2.18	n/a	DISHWASHER	n/a	-999	0	2	[0, 0, 0]	n/a	0	1	0	n/a	n/a	0.0	0	0	0	catFR2	0	R1028M
333.459	1.158	395075	REC_WORD	3.224	n/a	TOASTER	Appliances	2	1	2	[0, 0, 0]	n/a	0	1	0	n/a	n/a	0.0	0	0	0	catFR2	0	R1028M
334.617	0.986	395654	REC_WORD	4.382	n/a	DRESS	Clothing	5	1	2	[0, 0, 0]	n/a	0	1	0	n/a	n/a	0.0	0	0	0	catFR2	0	R1028M
335.603	1.539	396147	REC_WORD	5.368	n/a	SKIRT	Clothing	9	1	2	[0, 0, 0]	n/a	0	1	0	n/a	n/a	0.0	0	0	0	catFR2	0	R1028M
337.142	2.364	396917	REC_WORD	6.907	n/a	TULIP	Flowers	4	1	2	[0, 0, 0]	n/a	0	1	0	n/a	n/a	0.0	0	0	0	catFR2	0	R1028M
339.506	3.442	398099	REC_WORD	9.271	n/a	UNDERWEAR	Clothing	6	1	2	[0, 0, 0]	n/a	0	1	0	n/a	n/a	0.0	0	0	0	catFR2	0	R1028M
342.948	1.276	399819	REC_WORD	12.713	n/a	MARIGOLD	Flowers	3	1	2	[0, 0, 0]	n/a	0	1	0	n/a	n/a	0.0	0	0	0	catFR2	0	R1028M
344.224	8.231	400457	REC_WORD	13.989	n/a	SUNFLOWER	Flowers	11	1	2	[0, 0, 0]	n/a	0	1	0	n/a	n/a	0.0	0	0	0	catFR2	0	R1028M
352.455	7.234	404572	REC_WORD	22.22	n/a	MIXER	Appliances	8	1	2	[0, 0, 0]	n/a	0	1	0	n/a	n/a	0.0	0	0	0	catFR2	0	R1028M
359.689	0.557	408189	REC_WORD	29.454	n/a	PANTS	Clothing	10	1	2	[0, 0, 0]	n/a	0	1	0	n/a	n/a	0.0	0	0	0	catFR2	0	R1028M
360.246	21.932	408468	REC_END	n/a	n/a	n/a	n/a	-999	0	2	[0, 0, 0]	n/a	0	1	0	n/a	n/a	0.0	0	0	0	catFR2	0	R1028M
382.178	0.0	419432	TRIAL	n/a	n/a	n/a	n/a	-999	0	3	[0, 0, 0]	n/a	0	1	0	n/a	n/a	0.0	0	0	0	catFR2	0	R1028M
382.178	10.0	419432	COUNTDOWN_START	n/a	n/a	n/a	n/a	-999	0	3	[0, 0, 0]	n/a	0	1	0	n/a	n/a	0.0	0	0	0	catFR2	0	R1028M
392.606	0.008	424646	COUNTDOWN_END	n/a	n/a	n/a	n/a	-999	0	3	[0, 0, 0]	n/a	0	1	0	n/a	n/a	0.0	0	0	0	catFR2	0	R1028M
392.614	1.6	424650	ORIENT	n/a	n/a	n/a	n/a	-999	0	3	[0, 0, 0]	n/a	0	1	0	n/a	n/a	0.0	0	0	0	catFR2	0	R1028M
396.335	4.6	426510	STIM_ON	n/a	n/a	n/a	n/a	-999	0	3	[0, 0, 0]	n/a	1	1	4600	RTG1	RTG10	1500.0	50	230	300	catFR2	0	R1028M
396.548	1.6	426617	WORD	n/a	wordpools/wordpool_categorized_EN.txt	BUTTERFLY	Insects	1	1	3	[0, 0, 0]	n/a	1	1	4600	RTG1	RTG10	1500.0	50	230	300	catFR2	0	R1028M
399.081	1.6	427883	WORD	n/a	wordpools/wordpool_categorized_EN.txt	CRICKET	Insects	2	1	3	[0, 0, 0]	n/a	1	1	4600	RTG1	RTG10	1500.0	50	230	300	catFR2	0	R1028M
401.499	1.6	429092	WORD	n/a	wordpools/wordpool_categorized_EN.txt	GUITAR	Instruments	3	1	3	[0, 0, 0]	n/a	0	1	0	n/a	n/a	0.0	0	0	0	catFR2	0	R1028M
403.9	1.6	430292	WORD	n/a	wordpools/wordpool_categorized_EN.txt	ORGAN	Instruments	4	1	3	[0, 0, 0]	n/a	0	1	0	n/a	n/a	0.0	0	0	0	catFR2	0	R1028M
406.173	4.6	431429	STIM_ON	n/a	n/a	n/a	n/a	-999	0	3	[0, 0, 0]	n/a	1	1	4600	RTG1	RTG10	1500.0	50	230	300	catFR2	0	R1028M
406.382	1.6	431533	WORD	n/a	wordpools/wordpool_categorized_EN.txt	ZEBRA	Zoo	5	1	3	[0, 0, 0]	n/a	1	1	4600	RTG1	RTG10	1500.0	50	230	300	catFR2	0	R1028M
408.851	1.6	432768	WORD	n/a	wordpools/wordpool_categorized_EN.txt	ORANGUTAN	Zoo	6	1	3	[0, 0, 0]	n/a	1	1	4600	RTG1	RTG10	1500.0	50	230	300	catFR2	0	R1028M
411.283	1.6	433983	WORD	n/a	wordpools/wordpool_categorized_EN.txt	SPIDER	Insects	7	0	3	[0, 0, 0]	n/a	0	1	0	n/a	n/a	0.0	0	0	0	catFR2	0	R1028M
413.701	1.6	435192	WORD	n/a	wordpools/wordpool_categorized_EN.txt	FLY	Insects	8	1	3	[0, 0, 0]	n/a	0	1	0	n/a	n/a	0.0	0	0	0	catFR2	0	R1028M
416.085	4.6	436384	STIM_ON	n/a	n/a	n/a	n/a	-999	0	3	[0, 0, 0]	n/a	1	1	4600	RTG1	RTG10	1500.0	50	230	300	catFR2	0	R1028M
416.301	1.6	436492	WORD	n/a	wordpools/wordpool_categorized_EN.txt	GORILLA	Zoo	9	1	3	[0, 0, 0]	n/a	1	1	4600	RTG1	RTG10	1500.0	50	230	300	catFR2	0	R1028M
418.852	1.6	437768	WORD	n/a	wordpools/wordpool_categorized_EN.txt	MONKEY	Zoo	10	1	3	[0, 0, 0]	n/a	1	1	4600	RTG1	RTG10	1500.0	50	230	300	catFR2	0	R1028M
421.385	1.6	439034	WORD	n/a	wordpools/wordpool_categorized_EN.txt	TUBA	Instruments	11	1	3	[0, 0, 0]	n/a	0	1	0	n/a	n/a	0.0	0	0	0	catFR2	0	R1028M
424.002	1.6	440342	WORD	n/a	wordpools/wordpool_categorized_EN.txt	TROMBONE	Instruments	12	1	3	[0, 0, 0]	n/a	0	1	0	n/a	n/a	0.0	0	0	0	catFR2	0	R1028M
425.603	0.001	441143	DISTRACT_START	n/a	n/a	n/a	n/a	-999	0	3	[0, 0, 0]	n/a	0	1	0	n/a	n/a	0.0	0	0	0	catFR2	0	R1028M
425.604	0.016	441143	START	n/a	n/a	n/a	n/a	-999	0	3	[-999, -999, -999]	n/a	0	1	0	n/a	n/a	0.0	0	0	0	catFR2	0	R1028M
425.62	6.334	441151	PROB	6.306	n/a	n/a	n/a	-999	0	3	[5, 6, 7]	18	0	1	0	n/a	n/a	0.0	0	0	0	catFR2	0	R1028M
431.954	3.984	444318	PROB	3.949	n/a	n/a	n/a	-999	0	3	[5, 9, 3]	17	0	1	0	n/a	n/a	0.0	0	0	0	catFR2	0	R1028M
435.938	3.552	446310	PROB	3.517	n/a	n/a	n/a	-999	0	3	[6, 7, 5]	18	0	1	0	n/a	n/a	0.0	0	0	0	catFR2	0	R1028M
439.49	3.65	448085	PROB	3.628	n/a	n/a	n/a	-999	0	3	[3, 6, 9]	18	0	1	0	n/a	n/a	0.0	0	0	0	catFR2	0	R1028M
443.14	2.468	449910	PROB	2.443	n/a	n/a	n/a	-999	0	3	[6, 1, 3]	10	0	1	0	n/a	n/a	0.0	0	0	0	catFR2	0	R1028M
445.608	2.087	451144	PROB	2.087	n/a	n/a	n/a	-999	0	3	[1, 2, 1]	4	0	1	0	n/a	n/a	0.0	0	0	0	catFR2	0	R1028M
447.695	0.013	452188	STOP	n/a	n/a	n/a	n/a	-999	0	3	[-999, -999, -999]	n/a	0	1	0	n/a	n/a	0.0	0	0	0	catFR2	0	R1028M
447.708	1.2	452194	DISTRACT_END	n/a	n/a	n/a	n/a	-999	0	3	[0, 0, 0]	n/a	0	1	0	n/a	n/a	0.0	0	0	0	catFR2	0	R1028M
448.908	1.053	452794	REC_START	n/a	n/a	n/a	n/a	-999	0	3	[0, 0, 0]	n/a	0	1	0	n/a	n/a	0.0	0	0	0	catFR2	0	R1028M
449.961	2.021	453320	REC_WORD	1.053	n/a	BUTTERFLY	Insects	1	1	3	[0, 0, 0]	n/a	0	1	0	n/a	n/a	0.0	0	0	0	catFR2	0	R1028M
451.982	2.661	454331	REC_WORD	3.074	n/a	FLY	Insects	8	1	3	[0, 0, 0]	n/a	0	1	0	n/a	n/a	0.0	0	0	0	catFR2	0	R1028M
454.643	1.221	455661	REC_WORD	5.735	n/a	CRICKET	Insects	2	1	3	[0, 0, 0]	n/a	0	1	0	n/a	n/a	0.0	0	0	0	catFR2	0	R1028M
455.864	1.187	456272	REC_WORD	6.956	n/a	GUITAR	Instruments	3	1	3	[0, 0, 0]	n/a	0	1	0	n/a	n/a	0.0	0	0	0	catFR2	0	R1028M
457.051	0.728	456865	REC_WORD	8.143	n/a	ZEBRA	Zoo	5	1	3	[0, 0, 0]	n/a	0	1	0	n/a	n/a	0.0	0	0	0	catFR2	0	R1028M
457.779	0.885	457229	REC_WORD	8.871	n/a	ZEBRA	Zoo	5	1	3	[0, 0, 0]	n/a	0	1	0	n/a	n/a	0.0	0	0	0	catFR2	0	R1028M
458.664	1.929	457671	REC_WORD	9.756	n/a	ORANGUTAN	Zoo	6	1	3	[0, 0, 0]	n/a	0	1	0	n/a	n/a	0.0	0	0	0	catFR2	0	R1028M
460.593	1.088	458636	REC_WORD	11.685	n/a	MONKEY	Zoo	10	1	3	[0, 0, 0]	n/a	0	1	0	n/a	n/a	0.0	0	0	0	catFR2	0	R1028M
461.681	0.995	459180	REC_WORD	12.773	n/a	GORILLA	Zoo	9	1	3	[0, 0, 0]	n/a	0	1	0	n/a	n/a	0.0	0	0	0	catFR2	0	R1028M
462.676	0.688	459677	REC_WORD	13.768	n/a	ORGAN	Instruments	4	1	3	[0, 0, 0]	n/a	0	1	0	n/a	n/a	0.0	0	0	0	catFR2	0	R1028M
463.364	3.066	460021	REC_WORD	14.456	n/a	TROMBONE	Instruments	12	1	3	[0, 0, 0]	n/a	0	1	0	n/a	n/a	0.0	0	0	0	catFR2	0	R1028M
466.43	12.489	461554	REC_WORD	17.522	n/a	TUBA	Instruments	11	1	3	[0, 0, 0]	n/a	0	1	0	n/a	n/a	0.0	0	0	0	catFR2	0	R1028M
478.919	13.898	467798	REC_END	n/a	n/a	n/a	n/a	-999	0	3	[0, 0, 0]	n/a	0	1	0	n/a	n/a	0.0	0	0	0	catFR2	0	R1028M
492.817	10.0	474746	COUNTDOWN_START	n/a	n/a	n/a	n/a	-999	0	4	[0, 0, 0]	n/a	0	0	0	n/a	n/a	0.0	0	0	0	catFR2	0	R1028M
492.817	10.428	474746	TRIAL	n/a	n/a	n/a	n/a	-999	0	4	[0, 0, 0]	n/a	0	0	0	n/a	n/a	0.0	0	0	0	catFR2	0	R1028M
503.245	0.006	479960	COUNTDOWN_END	n/a	n/a	n/a	n/a	-999	0	4	[0, 0, 0]	n/a	0	0	0	n/a	n/a	0.0	0	0	0	catFR2	0	R1028M
503.251	1.6	479963	ORIENT	n/a	n/a	n/a	n/a	-999	0	4	[0, 0, 0]	n/a	0	0	0	n/a	n/a	0.0	0	0	0	catFR2	0	R1028M
506.703	1.6	481689	WORD	n/a	wordpools/wordpool_categorized_EN.txt	ORCHID	Flowers	1	1	4	[0, 0, 0]	n/a	0	0	0	n/a	n/a	0.0	0	0	0	catFR2	0	R1028M
509.119	1.6	482896	WORD	n/a	wordpools/wordpool_categorized_EN.txt	PETUNIA	Flowers	2	1	4	[0, 0, 0]	n/a	0	0	0	n/a	n/a	0.0	0	0	0	catFR2	0	R1028M
511.52	1.6	484097	WORD	n/a	wordpools/wordpool_categorized_EN.txt	LEG	BodyParts	3	1	4	[0, 0, 0]	n/a	0	0	0	n/a	n/a	0.0	0	0	0	catFR2	0	R1028M
514.036	1.6	485355	WORD	n/a	wordpools/wordpool_categorized_EN.txt	ELBOW	BodyParts	4	1	4	[0, 0, 0]	n/a	0	0	0	n/a	n/a	0.0	0	0	0	catFR2	0	R1028M
516.555	1.6	486614	WORD	n/a	wordpools/wordpool_categorized_EN.txt	DRUM	Instruments	5	1	4	[0, 0, 0]	n/a	0	0	0	n/a	n/a	0.0	0	0	0	catFR2	0	R1028M
519.071	1.6	487872	WORD	n/a	wordpools/wordpool_categorized_EN.txt	CELLO	Instruments	6	1	4	[0, 0, 0]	n/a	0	0	0	n/a	n/a	0.0	0	0	0	catFR2	0	R1028M
521.456	1.6	489064	WORD	n/a	wordpools/wordpool_categorized_EN.txt	ARM	BodyParts	7	1	4	[0, 0, 0]	n/a	0	0	0	n/a	n/a	0.0	0	0	0	catFR2	0	R1028M
524.055	1.6	490364	WORD	n/a	wordpools/wordpool_categorized_EN.txt	EYE	BodyParts	8	1	4	[0, 0, 0]	n/a	0	0	0	n/a	n/a	0.0	0	0	0	catFR2	0	R1028M
526.657	1.6	491664	WORD	n/a	wordpools/wordpool_categorized_EN.txt	DAFFODIL	Flowers	9	1	4	[0, 0, 0]	n/a	0	0	0	n/a	n/a	0.0	0	0	0	catFR2	0	R1028M
529.123	1.6	492897	WORD	n/a	wordpools/wordpool_categorized_EN.txt	DAISY	Flowers	10	0	4	[0, 0, 0]	n/a	0	0	0	n/a	n/a	0.0	0	0	0	catFR2	0	R1028M
531.674	1.6	494173	WORD	n/a	wordpools/wordpool_categorized_EN.txt	VIOLIN	Instruments	11	1	4	[0, 0, 0]	n/a	0	0	0	n/a	n/a	0.0	0	0	0	catFR2	0	R1028M
534.157	1.6	495414	WORD	n/a	wordpools/wordpool_categorized_EN.txt	FLUTE	Instruments	12	1	4	[0, 0, 0]	n/a	0	0	0	n/a	n/a	0.0	0	0	0	catFR2	0	R1028M
535.758	0.001	496215	DISTRACT_START	n/a	n/a	n/a	n/a	-999	0	4	[0, 0, 0]	n/a	0	0	0	n/a	n/a	0.0	0	0	0	catFR2	0	R1028M
535.759	0.016	496215	START	n/a	n/a	n/a	n/a	-999	0	4	[-999, -999, -999]	n/a	0	0	0	n/a	n/a	0.0	0	0	0	catFR2	0	R1028M
535.775	7.001	496223	PROB	6.976	n/a	n/a	n/a	-999	0	4	[9, 5, 8]	23	0	0	0	n/a	n/a	0.0	0	0	0	catFR2	0	R1028M
542.776	10.086	499723	PROB	10.055	n/a	n/a	n/a	-999	0	4	[5, 8, 3]	16	0	0	0	n/a	n/a	0.0	0	0	0	catFR2	0	R1028M
552.862	1.833	504766	PROB	1.809	n/a	n/a	n/a	-999	0	4	[1, 6, 4]	11	0	0	0	n/a	n/a	0.0	0	0	0	catFR2	0	R1028M
554.695	3.583	505682	PROB	3.583	n/a	n/a	n/a	-999	0	4	[8, 7, 4]	19	0	0	0	n/a	n/a	0.0	0	0	0	catFR2	0	R1028M
558.278	0.017	507473	STOP	n/a	n/a	n/a	n/a	-999	0	4	[-999, -999, -999]	n/a	0	0	0	n/a	n/a	0.0	0	0	0	catFR2	0	R1028M
558.295	1.101	507482	DISTRACT_END	n/a	n/a	n/a	n/a	-999	0	4	[0, 0, 0]	n/a	0	0	0	n/a	n/a	0.0	0	0	0	catFR2	0	R1028M
559.396	2.255	508032	REC_START	n/a	n/a	n/a	n/a	-999	0	4	[0, 0, 0]	n/a	0	0	0	n/a	n/a	0.0	0	0	0	catFR2	0	R1028M
561.651	1.468	509160	REC_WORD	2.255	n/a	ARM	BodyParts	7	1	4	[0, 0, 0]	n/a	0	0	0	n/a	n/a	0.0	0	0	0	catFR2	0	R1028M
563.119	1.388	509894	REC_WORD	3.723	n/a	EYE	BodyParts	8	1	4	[0, 0, 0]	n/a	0	0	0	n/a	n/a	0.0	0	0	0	catFR2	0	R1028M
564.507	0.558	510588	REC_WORD	5.111	n/a	LEG	BodyParts	3	1	4	[0, 0, 0]	n/a	0	0	0	n/a	n/a	0.0	0	0	0	catFR2	0	R1028M
565.065	1.567	510866	REC_WORD	5.669	n/a	ELBOW	BodyParts	4	1	4	[0, 0, 0]	n/a	0	0	0	n/a	n/a	0.0	0	0	0	catFR2	0	R1028M
566.632	0.896	511650	REC_WORD	7.236	n/a	CELLO	Instruments	6	1	4	[0, 0, 0]	n/a	0	0	0	n/a	n/a	0.0	0	0	0	catFR2	0	R1028M
567.528	0.714	512098	REC_WORD	8.132	n/a	FLUTE	Instruments	12	1	4	[0, 0, 0]	n/a	0	0	0	n/a	n/a	0.0	0	0	0	catFR2	0	R1028M
568.242	1.197	512455	REC_WORD	8.846	n/a	VIOLIN	Instruments	11	1	4	[0, 0, 0]	n/a	0	0	0	n/a	n/a	0.0	0	0	0	catFR2	0	R1028M
569.439	1.718	513053	REC_WORD	10.043	n/a	DRUM	Instruments	5	1	4	[0, 0, 0]	n/a	0	0	0	n/a	n/a	0.0	0	0	0	catFR2	0	R1028M
571.157	1.668	513912	REC_WORD	11.761	n/a	ORCHID	Flowers	1	1	4	[0, 0, 0]	n/a	0	0	0	n/a	n/a	0.0	0	0	0	catFR2	0	R1028M
572.825	1.635	514746	REC_WORD	13.429	n/a	DAFFODIL	Flowers	9	1	4	[0, 0, 0]	n/a	0	0	0	n/a	n/a	0.0	0	0	0	catFR2	0	R1028M
574.46	14.944	515564	REC_WORD	15.064	n/a	PETUNIA	Flowers	2	1	4	[0, 0, 0]	n/a	0	0	0	n/a	n/a	0.0	0	0	0	catFR2	0	R1028M
589.404	7.166	523035	REC_END	n/a	n/a	n/a	n/a	-999	0	4	[0, 0, 0]	n/a	0	0	0	n/a	n/a	0.0	0	0	0	catFR2	0	R1028M
596.57	0.0	526617	TRIAL	n/a	n/a	n/a	n/a	-999	0	5	[0, 0, 0]	n/a	0	1	0	n/a	n/a	0.0	0	0	0	catFR2	0	R1028M
596.57	10.0	526617	COUNTDOWN_START	n/a	n/a	n/a	n/a	-999	0	5	[0, 0, 0]	n/a	0	1	0	n/a	n/a	0.0	0	0	0	catFR2	0	R1028M
606.998	0.006	531831	COUNTDOWN_END	n/a	n/a	n/a	n/a	-999	0	5	[0, 0, 0]	n/a	0	1	0	n/a	n/a	0.0	0	0	0	catFR2	0	R1028M
607.004	1.6	531834	ORIENT	n/a	n/a	n/a	n/a	-999	0	5	[0, 0, 0]	n/a	0	1	0	n/a	n/a	0.0	0	0	0	catFR2	0	R1028M
610.418	4.6	533541	STIM_ON	n/a	n/a	n/a	n/a	-999	0	5	[0, 0, 0]	n/a	1	1	4600	RTG1	RTG10	1500.0	50	230	300	catFR2	0	R1028M
610.623	1.6	533643	WORD	n/a	wordpools/wordpool_categorized_EN.txt	BOOKCASE	Furniture	1	1	5	[0, 0, 0]	n/a	1	1	4600	RTG1	RTG10	1500.0	50	230	300	catFR2	0	R1028M
613.239	1.6	534951	WORD	n/a	wordpools/wordpool_categorized_EN.txt	DRESSER	Furniture	2	1	5	[0, 0, 0]	n/a	1	1	4600	RTG1	RTG10	1500.0	50	230	300	catFR2	0	R1028M
615.757	1.6	536210	WORD	n/a	wordpools/wordpool_categorized_EN.txt	CAR	Vehicles	3	1	5	[0, 0, 0]	n/a	0	1	0	n/a	n/a	0.0	0	0	0	catFR2	0	R1028M
618.29	1.6	537476	WORD	n/a	wordpools/wordpool_categorized_EN.txt	SCOOTER	Vehicles	4	1	5	[0, 0, 0]	n/a	0	1	0	n/a	n/a	0.0	0	0	0	catFR2	0	R1028M
620.604	4.6	538633	STIM_ON	n/a	n/a	n/a	n/a	-999	0	5	[0, 0, 0]	n/a	1	1	4600	RTG1	RTG10	1500.0	50	230	300	catFR2	0	R1028M
620.808	1.6	538735	WORD	n/a	wordpools/wordpool_categorized_EN.txt	CROWBAR	Tools	5	1	5	[0, 0, 0]	n/a	1	1	4600	RTG1	RTG10	1500.0	50	230	300	catFR2	0	R1028M
623.274	1.6	539968	WORD	n/a	wordpools/wordpool_categorized_EN.txt	HAMMER	Tools	6	1	5	[0, 0, 0]	n/a	1	1	4600	RTG1	RTG10	1500.0	50	230	300	catFR2	0	R1028M
625.759	1.6	541210	WORD	n/a	wordpools/wordpool_categorized_EN.txt	SOFA	Furniture	7	1	5	[0, 0, 0]	n/a	0	1	0	n/a	n/a	0.0	0	0	0	catFR2	0	R1028M
628.342	1.6	542502	WORD	n/a	wordpools/wordpool_categorized_EN.txt	COUCH	Furniture	8	1	5	[0, 0, 0]	n/a	0	1	0	n/a	n/a	0.0	0	0	0	catFR2	0	R1028M
630.52	4.6	543591	STIM_ON	n/a	n/a	n/a	n/a	-999	0	5	[0, 0, 0]	n/a	1	1	4600	RTG1	RTG10	1500.0	50	230	300	catFR2	0	R1028M
630.727	1.6	543694	WORD	n/a	wordpools/wordpool_categorized_EN.txt	SANDER	Tools	9	1	5	[0, 0, 0]	n/a	1	1	4600	RTG1	RTG10	1500.0	50	230	300	catFR2	0	R1028M
633.126	1.6	544893	WORD	n/a	wordpools/wordpool_categorized_EN.txt	DRILL	Tools	10	1	5	[0, 0, 0]	n/a	1	1	4600	RTG1	RTG10	1500.0	50	230	300	catFR2	0	R1028M
635.744	1.6	546202	WORD	n/a	wordpools/wordpool_categorized_EN.txt	BIKE	Vehicles	11	0	5	[0, 0, 0]	n/a	0	1	0	n/a	n/a	0.0	0	0	0	catFR2	0	R1028M
638.277	1.6	547469	WORD	n/a	wordpools/wordpool_categorized_EN.txt	JEEP	Vehicles	12	1	5	[0, 0, 0]	n/a	0	1	0	n/a	n/a	0.0	0	0	0	catFR2	0	R1028M
639.878	0.001	548269	DISTRACT_START	n/a	n/a	n/a	n/a	-999	0	5	[0, 0, 0]	n/a	0	1	0	n/a	n/a	0.0	0	0	0	catFR2	0	R1028M
639.879	0.016	548270	START	n/a	n/a	n/a	n/a	-999	0	5	[-999, -999, -999]	n/a	0	1	0	n/a	n/a	0.0	0	0	0	catFR2	0	R1028M
639.895	6.618	548278	PROB	6.584	n/a	n/a	n/a	-999	0	5	[7, 4, 9]	20	0	1	0	n/a	n/a	0.0	0	0	0	catFR2	0	R1028M
646.513	3.951	551586	PROB	3.925	n/a	n/a	n/a	-999	0	5	[5, 7, 4]	16	0	1	0	n/a	n/a	0.0	0	0	0	catFR2	0	R1028M
650.464	2.267	553562	PROB	2.239	n/a	n/a	n/a	-999	0	5	[7, 3, 7]	17	0	1	0	n/a	n/a	0.0	0	0	0	catFR2	0	R1028M
652.731	2.299	554695	PROB	2.275	n/a	n/a	n/a	-999	0	5	[6, 4, 5]	15	0	1	0	n/a	n/a	0.0	0	0	0	catFR2	0	R1028M
655.03	2.735	555844	PROB	2.713	n/a	n/a	n/a	-999	0	5	[8, 4, 1]	13	0	1	0	n/a	n/a	0.0	0	0	0	catFR2	0	R1028M
657.765	3.786	557212	PROB	3.786	n/a	n/a	n/a	-999	0	5	[8, 2, 5]	15	0	1	0	n/a	n/a	0.0	0	0	0	catFR2	0	R1028M
661.551	0.015	559105	STOP	n/a	n/a	n/a	n/a	-999	0	5	[-999, -999, -999]	n/a	0	1	0	n/a	n/a	0.0	0	0	0	catFR2	0	R1028M
661.566	1.051	559112	DISTRACT_END	n/a	n/a	n/a	n/a	-999	0	5	[0, 0, 0]	n/a	0	1	0	n/a	n/a	0.0	0	0	0	catFR2	0	R1028M
662.617	1.598	559637	REC_START	n/a	n/a	n/a	n/a	-999	0	5	[0, 0, 0]	n/a	0	1	0	n/a	n/a	0.0	0	0	0	catFR2	0	R1028M
664.215	1.336	560436	REC_WORD	1.598	n/a	BOOKCASE	Furniture	1	1	5	[0, 0, 0]	n/a	0	1	0	n/a	n/a	0.0	0	0	0	catFR2	0	R1028M
665.551	1.241	561104	REC_WORD	2.934	n/a	DRESSER	Furniture	2	1	5	[0, 0, 0]	n/a	0	1	0	n/a	n/a	0.0	0	0	0	catFR2	0	R1028M
666.792	0.983	561725	REC_WORD	4.175	n/a	SOFA	Furniture	7	1	5	[0, 0, 0]	n/a	0	1	0	n/a	n/a	0.0	0	0	0	catFR2	0	R1028M
667.775	2.062	562216	REC_WORD	5.158	n/a	COUCH	Furniture	8	1	5	[0, 0, 0]	n/a	0	1	0	n/a	n/a	0.0	0	0	0	catFR2	0	R1028M
669.837	0.763	563247	REC_WORD	7.22	n/a	DRILL	Tools	10	1	5	[0, 0, 0]	n/a	0	1	0	n/a	n/a	0.0	0	0	0	catFR2	0	R1028M
670.6	1.519	563629	REC_WORD	7.983	n/a	SANDER	Tools	9	1	5	[0, 0, 0]	n/a	0	1	0	n/a	n/a	0.0	0	0	0	catFR2	0	R1028M
672.119	1.265	564388	REC_WORD	9.502	n/a	JEEP	Vehicles	12	1	5	[0, 0, 0]	n/a	0	1	0	n/a	n/a	0.0	0	0	0	catFR2	0	R1028M
673.384	0.842	565020	REC_WORD	10.767	n/a	SCOOTER	Vehicles	4	1	5	[0, 0, 0]	n/a	0	1	0	n/a	n/a	0.0	0	0	0	catFR2	0	R1028M
674.226	2.639	565441	REC_WORD	11.609	n/a	CAR	Vehicles	3	1	5	[0, 0, 0]	n/a	0	1	0	n/a	n/a	0.0	0	0	0	catFR2	0	R1028M
676.865	0.724	566761	REC_WORD	14.248	n/a	HAMMER	Tools	6	1	5	[0, 0, 0]	n/a	0	1	0	n/a	n/a	0.0	0	0	0	catFR2	0	R1028M
677.589	15.039	567123	REC_WORD	14.972	n/a	CROWBAR	Tools	5	1	5	[0, 0, 0]	n/a	0	1	0	n/a	n/a	0.0	0	0	0	catFR2	0	R1028M
692.628	7.162	574641	REC_END	n/a	n/a	n/a	n/a	-999	0	5	[0, 0, 0]	n/a	0	1	0	n/a	n/a	0.0	0	0	0	catFR2	0	R1028M
699.79	10.0	578222	COUNTDOWN_START	n/a	n/a	n/a	n/a	-999	0	6	[0, 0, 0]	n/a	0	1	0	n/a	n/a	0.0	0	0	0	catFR2	0	R1028M
699.791	10.427	578223	TRIAL	n/a	n/a	n/a	n/a	-999	0	6	[0, 0, 0]	n/a	0	1	0	n/a	n/a	0.0	0	0	0	catFR2	0	R1028M
710.218	0.006	583435	COUNTDOWN_END	n/a	n/a	n/a	n/a	-999	0	6	[0, 0, 0]	n/a	0	1	0	n/a	n/a	0.0	0	0	0	catFR2	0	R1028M
710.224	1.6	583438	ORIENT	n/a	n/a	n/a	n/a	-999	0	6	[0, 0, 0]	n/a	0	1	0	n/a	n/a	0.0	0	0	0	catFR2	0	R1028M
714.175	1.6	585414	WORD	n/a	wordpools/wordpool_categorized_EN.txt	BEE	Insects	1	1	6	[0, 0, 0]	n/a	0	1	0	n/a	n/a	0.0	0	0	0	catFR2	0	R1028M
716.677	1.6	586665	WORD	n/a	wordpools/wordpool_categorized_EN.txt	ANT	Insects	2	1	6	[0, 0, 0]	n/a	0	1	0	n/a	n/a	0.0	0	0	0	catFR2	0	R1028M
718.87	4.6	587761	STIM_ON	n/a	n/a	n/a	n/a	-999	0	6	[0, 0, 0]	n/a	1	1	4600	RTG1	RTG10	1500.0	50	230	300	catFR2	0	R1028M
719.076	1.6	587864	WORD	n/a	wordpools/wordpool_categorized_EN.txt	BROWNIES	Desserts	3	1	6	[0, 0, 0]	n/a	1	1	4600	RTG1	RTG10	1500.0	50	230	300	catFR2	0	R1028M
721.561	1.6	589106	WORD	n/a	wordpools/wordpool_categorized_EN.txt	CHEESECAKE	Desserts	4	1	6	[0, 0, 0]	n/a	1	1	4600	RTG1	RTG10	1500.0	50	230	300	catFR2	0	R1028M
724.143	1.6	590397	WORD	n/a	wordpools/wordpool_categorized_EN.txt	DOLL	Toys	5	0	6	[0, 0, 0]	n/a	0	1	0	n/a	n/a	0.0	0	0	0	catFR2	0	R1028M
726.712	1.6	591682	WORD	n/a	wordpools/wordpool_categorized_EN.txt	FOOTBALL	Toys	6	1	6	[0, 0, 0]	n/a	0	1	0	n/a	n/a	0.0	0	0	0	catFR2	0	R1028M
728.888	4.6	592770	STIM_ON	n/a	n/a	n/a	n/a	-999	0	6	[0, 0, 0]	n/a	1	1	4600	RTG1	RTG10	1500.0	50	230	300	catFR2	0	R1028M
729.095	1.6	592873	WORD	n/a	wordpools/wordpool_categorized_EN.txt	COBBLER	Desserts	7	1	6	[0, 0, 0]	n/a	1	1	4600	RTG1	RTG10	1500.0	50	230	300	catFR2	0	R1028M
731.646	1.6	594148	WORD	n/a	wordpools/wordpool_categorized_EN.txt	CUPCAKE	Desserts	8	1	6	[0, 0, 0]	n/a	1	1	4600	RTG1	RTG10	1500.0	50	230	300	catFR2	0	R1028M
734.179	1.6	595415	WORD	n/a	wordpools/wordpool_categorized_EN.txt	MOTH	Insects	9	0	6	[0, 0, 0]	n/a	0	1	0	n/a	n/a	0.0	0	0	0	catFR2	0	R1028M
736.564	1.6	596607	WORD	n/a	wordpools/wordpool_categorized_EN.txt	ROACH	Insects	10	0	6	[0, 0, 0]	n/a	0	1	0	n/a	n/a	0.0	0	0	0	catFR2	0	R1028M
738.971	4.6	597811	STIM_ON	n/a	n/a	n/a	n/a	-999	0	6	[0, 0, 0]	n/a	1	1	4600	RTG1	RTG10	1500.0	50	230	300	catFR2	0	R1028M
739.18	1.6	597915	WORD	n/a	wordpools/wordpool_categorized_EN.txt	FRISBEE	Toys	11	1	6	[0, 0, 0]	n/a	1	1	4600	RTG1	RTG10	1500.0	50	230	300	catFR2	0	R1028M
741.748	1.6	599199	WORD	n/a	wordpools/wordpool_categorized_EN.txt	BASEBALL	Toys	12	1	6	[0, 0, 0]	n/a	1	1	4600	RTG1	RTG10	1500.0	50	230	300	catFR2	0	R1028M
743.364	0.001	600007	DISTRACT_START	n/a	n/a	n/a	n/a	-999	0	6	[0, 0, 0]	n/a	0	1	0	n/a	n/a	0.0	0	0	0	catFR2	0	R1028M
743.365	0.015	600007	START	n/a	n/a	n/a	n/a	-999	0	6	[-999, -999, -999]	n/a	0	1	0	n/a	n/a	0.0	0	0	0	catFR2	0	R1028M
743.38	2.951	600015	PROB	2.922	n/a	n/a	n/a	-999	0	6	[6, 6, 6]	18	0	1	0	n/a	n/a	0.0	0	0	0	catFR2	0	R1028M
746.331	3.485	601490	PROB	3.46	n/a	n/a	n/a	-999	0	6	[2, 1, 2]	5	0	1	0	n/a	n/a	0.0	0	0	0	catFR2	0	R1028M
749.816	3.167	603232	PROB	3.134	n/a	n/a	n/a	-999	0	6	[8, 6, 5]	19	0	1	0	n/a	n/a	0.0	0	0	0	catFR2	0	R1028M
752.983	2.768	604816	PROB	2.736	n/a	n/a	n/a	-999	0	6	[3, 6, 2]	11	0	1	0	n/a	n/a	0.0	0	0	0	catFR2	0	R1028M
755.751	2.884	606200	PROB	2.856	n/a	n/a	n/a	-999	0	6	[3, 6, 7]	16	0	1	0	n/a	n/a	0.0	0	0	0	catFR2	0	R1028M
758.635	3.05	607641	PROB	3.028	n/a	n/a	n/a	-999	0	6	[4, 6, 5]	15	0	1	0	n/a	n/a	0.0	0	0	0	catFR2	0	R1028M
761.685	4.521	609166	PROB	4.521	n/a	n/a	n/a	-999	0	6	[5, 9, 6]	20	0	1	0	n/a	n/a	0.0	0	0	0	catFR2	0	R1028M
766.206	0.013	611427	STOP	n/a	n/a	n/a	n/a	-999	0	6	[-999, -999, -999]	n/a	0	1	0	n/a	n/a	0.0	0	0	0	catFR2	0	R1028M
766.219	1.067	611433	DISTRACT_END	n/a	n/a	n/a	n/a	-999	0	6	[0, 0, 0]	n/a	0	1	0	n/a	n/a	0.0	0	0	0	catFR2	0	R1028M
767.286	0.711	611967	REC_START	n/a	n/a	n/a	n/a	-999	0	6	[0, 0, 0]	n/a	0	1	0	n/a	n/a	0.0	0	0	0	catFR2	0	R1028M
767.997	2.008	612322	REC_WORD_VV	0.711	n/a	<>	n/a	-999	0	6	[0, 0, 0]	n/a	0	1	0	n/a	n/a	0.0	0	0	0	catFR2	0	R1028M
770.005	2.042	613326	REC_WORD	2.719	n/a	ANT	Insects	2	1	6	[0, 0, 0]	n/a	0	1	0	n/a	n/a	0.0	0	0	0	catFR2	0	R1028M
772.047	0.623	614347	REC_WORD	4.761	n/a	BEE	Insects	1	1	6	[0, 0, 0]	n/a	0	1	0	n/a	n/a	0.0	0	0	0	catFR2	0	R1028M
772.67	1.073	614658	REC_WORD	5.384	n/a	BROWNIES	Desserts	3	1	6	[0, 0, 0]	n/a	0	1	0	n/a	n/a	0.0	0	0	0	catFR2	0	R1028M
773.743	1.311	615195	REC_WORD	6.457	n/a	CUPCAKE	Desserts	8	1	6	[0, 0, 0]	n/a	0	1	0	n/a	n/a	0.0	0	0	0	catFR2	0	R1028M
775.054	0.967	615850	REC_WORD	7.768	n/a	COBBLER	Desserts	7	1	6	[0, 0, 0]	n/a	0	1	0	n/a	n/a	0.0	0	0	0	catFR2	0	R1028M
776.021	1.27	616334	REC_WORD	8.735	n/a	CHEESECAKE	Desserts	4	1	6	[0, 0, 0]	n/a	0	1	0	n/a	n/a	0.0	0	0	0	catFR2	0	R1028M
777.291	1.214	616969	REC_WORD	10.005	n/a	FOOTBALL	Toys	6	1	6	[0, 0, 0]	n/a	0	1	0	n/a	n/a	0.0	0	0	0	catFR2	0	R1028M
778.505	2.831	617575	REC_WORD	11.219	n/a	BASEBALL	Toys	12	1	6	[0, 0, 0]	n/a	0	1	0	n/a	n/a	0.0	0	0	0	catFR2	0	R1028M
781.336	1.09	618991	REC_WORD	14.05	n/a	FRISBEE	Toys	11	1	6	[0, 0, 0]	n/a	0	1	0	n/a	n/a	0.0	0	0	0	catFR2	0	R1028M
782.426	14.871	619536	REC_WORD	15.14	n/a	DOLLHOUSE	n/a	-999	0	6	[0, 0, 0]	n/a	0	1	0	n/a	n/a	0.0	0	0	0	catFR2	0	R1028M
797.297	16.097	626971	REC_END	n/a	n/a	n/a	n/a	-999	0	6	[0, 0, 0]	n/a	0	1	0	n/a	n/a	0.0	0	0	0	catFR2	0	R1028M
813.394	10.0	635018	COUNTDOWN_START	n/a	n/a	n/a	n/a	-999	0	7	[0, 0, 0]	n/a	0	1	0	n/a	n/a	0.0	0	0	0	catFR2	0	R1028M
813.394	10.428	635018	TRIAL	n/a	n/a	n/a	n/a	-999	0	7	[0, 0, 0]	n/a	0	1	0	n/a	n/a	0.0	0	0	0	catFR2	0	R1028M
823.822	0.008	640232	COUNTDOWN_END	n/a	n/a	n/a	n/a	-999	0	7	[0, 0, 0]	n/a	0	1	0	n/a	n/a	0.0	0	0	0	catFR2	0	R1028M
823.83	1.6	640236	ORIENT	n/a	n/a	n/a	n/a	-999	0	7	[0, 0, 0]	n/a	0	1	0	n/a	n/a	0.0	0	0	0	catFR2	0	R1028M
827.196	4.6	641918	STIM_ON	n/a	n/a	n/a	n/a	-999	0	7	[0, 0, 0]	n/a	1	1	4600	RTG1	RTG10	1500.0	50	230	300	catFR2	0	R1028M
827.414	1.6	642027	WORD	n/a	wordpools/wordpool_categorized_EN.txt	CABBAGE	Vegetables	1	1	7	[0, 0, 0]	n/a	1	1	4600	RTG1	RTG10	1500.0	50	230	300	catFR2	0	R1028M
830.047	1.6	643344	WORD	n/a	wordpools/wordpool_categorized_EN.txt	CARROT	Vegetables	2	1	7	[0, 0, 0]	n/a	1	1	4600	RTG1	RTG10	1500.0	50	230	300	catFR2	0	R1028M
832.649	1.6	644645	WORD	n/a	wordpools/wordpool_categorized_EN.txt	ISLAND	Landscapes	3	1	7	[0, 0, 0]	n/a	0	1	0	n/a	n/a	0.0	0	0	0	catFR2	0	R1028M
835.065	1.6	645853	WORD	n/a	wordpools/wordpool_categorized_EN.txt	OCEAN	Landscapes	4	1	7	[0, 0, 0]	n/a	0	1	0	n/a	n/a	0.0	0	0	0	catFR2	0	R1028M
837.249	4.6	646944	STIM_ON	n/a	n/a	n/a	n/a	-999	0	7	[0, 0, 0]	n/a	1	1	4600	RTG1	RTG10	1500.0	50	230	300	catFR2	0	R1028M
837.466	1.6	647053	WORD	n/a	wordpools/wordpool_categorized_EN.txt	MARKER	OfficeSupplies	5	1	7	[0, 0, 0]	n/a	1	1	4600	RTG1	RTG10	1500.0	50	230	300	catFR2	0	R1028M
839.933	1.6	648286	WORD	n/a	wordpools/wordpool_categorized_EN.txt	STAPLER	OfficeSupplies	6	1	7	[0, 0, 0]	n/a	1	1	4600	RTG1	RTG10	1500.0	50	230	300	catFR2	0	R1028M
842.433	1.6	649536	WORD	n/a	wordpools/wordpool_categorized_EN.txt	CUCUMBER	Vegetables	7	0	7	[0, 0, 0]	n/a	0	1	0	n/a	n/a	0.0	0	0	0	catFR2	0	R1028M
845.05	1.6	650845	WORD	n/a	wordpools/wordpool_categorized_EN.txt	CAULIFLOWER	Vegetables	8	1	7	[0, 0, 0]	n/a	0	1	0	n/a	n/a	0.0	0	0	0	catFR2	0	R1028M
847.277	4.6	651958	STIM_ON	n/a	n/a	n/a	n/a	-999	0	7	[0, 0, 0]	n/a	1	1	4600	RTG1	RTG10	1500.0	50	230	300	catFR2	0	R1028M
847.485	1.6	652062	WORD	n/a	wordpools/wordpool_categorized_EN.txt	TAPE	OfficeSupplies	9	1	7	[0, 0, 0]	n/a	1	1	4600	RTG1	RTG10	1500.0	50	230	300	catFR2	0	R1028M
850.018	1.6	653328	WORD	n/a	wordpools/wordpool_categorized_EN.txt	NOTEBOOK	OfficeSupplies	10	0	7	[0, 0, 0]	n/a	1	1	4600	RTG1	RTG10	1500.0	50	230	300	catFR2	0	R1028M
852.569	1.6	654604	WORD	n/a	wordpools/wordpool_categorized_EN.txt	VALLEY	Landscapes	11	1	7	[0, 0, 0]	n/a	0	1	0	n/a	n/a	0.0	0	0	0	catFR2	0	R1028M
855.186	1.6	655912	WORD	n/a	wordpools/wordpool_categorized_EN.txt	FOREST	Landscapes	12	0	7	[0, 0, 0]	n/a	0	1	0	n/a	n/a	0.0	0	0	0	catFR2	0	R1028M
856.804	0.001	656721	DISTRACT_START	n/a	n/a	n/a	n/a	-999	0	7	[0, 0, 0]	n/a	0	1	0	n/a	n/a	0.0	0	0	0	catFR2	0	R1028M
856.805	0.015	656721	START	n/a	n/a	n/a	n/a	-999	0	7	[-999, -999, -999]	n/a	0	1	0	n/a	n/a	0.0	0	0	0	catFR2	0	R1028M
856.82	5.55	656729	PROB	5.53	n/a	n/a	n/a	-999	0	7	[6, 8, 1]	15	0	1	0	n/a	n/a	0.0	0	0	0	catFR2	0	R1028M
862.37	2.968	659504	PROB	2.932	n/a	n/a	n/a	-999	0	7	[9, 4, 6]	19	0	1	0	n/a	n/a	0.0	0	0	0	catFR2	0	R1028M
865.338	5.917	660987	PROB	5.884	n/a	n/a	n/a	-999	0	7	[5, 8, 9]	23	0	1	0	n/a	n/a	0.0	0	0	0	catFR2	0	R1028M
871.255	2.469	663946	PROB	2.432	n/a	n/a	n/a	-999	0	7	[8, 3, 2]	13	0	1	0	n/a	n/a	0.0	0	0	0	catFR2	0	R1028M
873.724	2.516	665180	PROB	2.49	n/a	n/a	n/a	-999	0	7	[1, 1, 8]	10	0	1	0	n/a	n/a	0.0	0	0	0	catFR2	0	R1028M
876.24	2.678	666438	PROB	2.678	n/a	n/a	n/a	-999	0	7	[2, 7, 8]	17	0	1	0	n/a	n/a	0.0	0	0	0	catFR2	0	R1028M
878.918	0.006	667777	STOP	n/a	n/a	n/a	n/a	-999	0	7	[-999, -999, -999]	n/a	0	1	0	n/a	n/a	0.0	0	0	0	catFR2	0	R1028M
878.924	1.151	667780	DISTRACT_END	n/a	n/a	n/a	n/a	-999	0	7	[0, 0, 0]	n/a	0	1	0	n/a	n/a	0.0	0	0	0	catFR2	0	R1028M
880.075	1.539	668355	REC_START	n/a	n/a	n/a	n/a	-999	0	7	[0, 0, 0]	n/a	0	1	0	n/a	n/a	0.0	0	0	0	catFR2	0	R1028M
881.614	0.871	669125	REC_WORD	1.539	n/a	CABBAGE	Vegetables	1	1	7	[0, 0, 0]	n/a	0	1	0	n/a	n/a	0.0	0	0	0	catFR2	0	R1028M
882.485	1.879	669560	REC_WORD	2.41	n/a	CARROT	Vegetables	2	1	7	[0, 0, 0]	n/a	0	1	0	n/a	n/a	0.0	0	0	0	catFR2	0	R1028M
884.364	0.955	670500	REC_WORD	4.289	n/a	OCEAN	Landscapes	4	1	7	[0, 0, 0]	n/a	0	1	0	n/a	n/a	0.0	0	0	0	catFR2	0	R1028M
885.319	3.703	670977	REC_WORD	5.244	n/a	ISLAND	Landscapes	3	1	7	[0, 0, 0]	n/a	0	1	0	n/a	n/a	0.0	0	0	0	catFR2	0	R1028M
889.022	1.14	672828	REC_WORD	8.947	n/a	VALLEY	Landscapes	11	1	7	[0, 0, 0]	n/a	0	1	0	n/a	n/a	0.0	0	0	0	catFR2	0	R1028M
890.162	0.611	673398	REC_WORD	10.087	n/a	MAP	n/a	-999	0	7	[0, 0, 0]	n/a	0	1	0	n/a	n/a	0.0	0	0	0	catFR2	0	R1028M
890.773	1.26	673704	REC_WORD	10.698	n/a	MARKER	OfficeSupplies	5	1	7	[0, 0, 0]	n/a	0	1	0	n/a	n/a	0.0	0	0	0	catFR2	0	R1028M
892.033	2.399	674334	REC_WORD	11.958	n/a	TAPE	OfficeSupplies	9	1	7	[0, 0, 0]	n/a	0	1	0	n/a	n/a	0.0	0	0	0	catFR2	0	R1028M
894.432	3.161	675533	REC_WORD	14.357	n/a	STAPLER	OfficeSupplies	6	1	7	[0, 0, 0]	n/a	0	1	0	n/a	n/a	0.0	0	0	0	catFR2	0	R1028M
897.593	12.492	677113	REC_WORD	17.518	n/a	CAULIFLOWER	Vegetables	8	1	7	[0, 0, 0]	n/a	0	1	0	n/a	n/a	0.0	0	0	0	catFR2	0	R1028M
910.085	46.804	683359	REC_END	n/a	n/a	n/a	n/a	-999	0	7	[0, 0, 0]	n/a	0	1	0	n/a	n/a	0.0	0	0	0	catFR2	0	R1028M
956.889	10.0	706758	COUNTDOWN_START	n/a	n/a	n/a	n/a	-999	0	8	[0, 0, 0]	n/a	0	0	0	n/a	n/a	0.0	0	0	0	catFR2	0	R1028M
956.89	10.427	706759	TRIAL	n/a	n/a	n/a	n/a	-999	0	8	[0, 0, 0]	n/a	0	0	0	n/a	n/a	0.0	0	0	0	catFR2	0	R1028M
967.317	0.007	711972	COUNTDOWN_END	n/a	n/a	n/a	n/a	-999	0	8	[0, 0, 0]	n/a	0	0	0	n/a	n/a	0.0	0	0	0	catFR2	0	R1028M
967.324	1.6	711975	ORIENT	n/a	n/a	n/a	n/a	-999	0	8	[0, 0, 0]	n/a	0	0	0	n/a	n/a	0.0	0	0	0	catFR2	0	R1028M
970.958	1.6	713792	WORD	n/a	wordpools/wordpool_categorized_EN.txt	AXE	Tools	1	1	8	[0, 0, 0]	n/a	0	0	0	n/a	n/a	0.0	0	0	0	catFR2	0	R1028M
973.342	1.6	714984	WORD	n/a	wordpools/wordpool_categorized_EN.txt	SHOVEL	Tools	2	1	8	[0, 0, 0]	n/a	0	0	0	n/a	n/a	0.0	0	0	0	catFR2	0	R1028M
975.76	1.6	716193	WORD	n/a	wordpools/wordpool_categorized_EN.txt	SOCKS	Clothing	3	0	8	[0, 0, 0]	n/a	0	0	0	n/a	n/a	0.0	0	0	0	catFR2	0	R1028M
978.276	1.6	717451	WORD	n/a	wordpools/wordpool_categorized_EN.txt	BLOUSE	Clothing	4	1	8	[0, 0, 0]	n/a	0	0	0	n/a	n/a	0.0	0	0	0	catFR2	0	R1028M
980.711	1.6	718668	WORD	n/a	wordpools/wordpool_categorized_EN.txt	MILK	Beverages	5	1	8	[0, 0, 0]	n/a	0	0	0	n/a	n/a	0.0	0	0	0	catFR2	0	R1028M
983.11	1.6	719867	WORD	n/a	wordpools/wordpool_categorized_EN.txt	RUM	Beverages	6	0	8	[0, 0, 0]	n/a	0	0	0	n/a	n/a	0.0	0	0	0	catFR2	0	R1028M
985.612	1.6	721118	WORD	n/a	wordpools/wordpool_categorized_EN.txt	SAW	Tools	7	0	8	[0, 0, 0]	n/a	0	0	0	n/a	n/a	0.0	0	0	0	catFR2	0	R1028M
988.028	1.6	722326	WORD	n/a	wordpools/wordpool_categorized_EN.txt	LEVEL	Tools	8	1	8	[0, 0, 0]	n/a	0	0	0	n/a	n/a	0.0	0	0	0	catFR2	0	R1028M
990.446	1.6	723535	WORD	n/a	wordpools/wordpool_categorized_EN.txt	CIDER	Beverages	9	1	8	[0, 0, 0]	n/a	0	0	0	n/a	n/a	0.0	0	0	0	catFR2	0	R1028M
993.029	1.6	724826	WORD	n/a	wordpools/wordpool_categorized_EN.txt	TEA	Beverages	10	1	8	[0, 0, 0]	n/a	0	0	0	n/a	n/a	0.0	0	0	0	catFR2	0	R1028M
995.396	1.6	726010	WORD	n/a	wordpools/wordpool_categorized_EN.txt	JACKET	Clothing	11	0	8	[0, 0, 0]	n/a	0	0	0	n/a	n/a	0.0	0	0	0	catFR2	0	R1028M
997.946	1.6	727285	WORD	n/a	wordpools/wordpool_categorized_EN.txt	SHOES	Clothing	12	0	8	[0, 0, 0]	n/a	0	0	0	n/a	n/a	0.0	0	0	0	catFR2	0	R1028M
999.548	0.001	728086	DISTRACT_START	n/a	n/a	n/a	n/a	-999	0	8	[0, 0, 0]	n/a	0	0	0	n/a	n/a	0.0	0	0	0	catFR2	0	R1028M
999.549	0.015	728086	START	n/a	n/a	n/a	n/a	-999	0	8	[-999, -999, -999]	n/a	0	0	0	n/a	n/a	0.0	0	0	0	catFR2	0	R1028M
999.564	4.168	728094	PROB	4.139	n/a	n/a	n/a	-999	0	8	[7, 7, 5]	19	0	0	0	n/a	n/a	0.0	0	0	0	catFR2	0	R1028M
1003.732	2.383	730177	PROB	2.346	n/a	n/a	n/a	-999	0	8	[5, 1, 5]	11	0	0	0	n/a	n/a	0.0	0	0	0	catFR2	0	R1028M
1006.115	3.234	731369	PROB	3.211	n/a	n/a	n/a	-999	0	8	[3, 6, 8]	17	0	0	0	n/a	n/a	0.0	0	0	0	catFR2	0	R1028M
1009.349	3.101	732986	PROB	3.073	n/a	n/a	n/a	-999	0	8	[2, 6, 5]	13	0	0	0	n/a	n/a	0.0	0	0	0	catFR2	0	R1028M
1012.45	2.434	734536	PROB	2.405	n/a	n/a	n/a	-999	0	8	[6, 9, 1]	16	0	0	0	n/a	n/a	0.0	0	0	0	catFR2	0	R1028M
1014.884	3.951	735753	PROB	3.915	n/a	n/a	n/a	-999	0	8	[4, 9, 5]	18	0	0	0	n/a	n/a	0.0	0	0	0	catFR2	0	R1028M
1018.835	3.363	737728	PROB	3.363	n/a	n/a	n/a	-999	0	8	[7, 6, 3]	16	0	0	0	n/a	n/a	0.0	0	0	0	catFR2	0	R1028M
1022.198	0.02	739409	STOP	n/a	n/a	n/a	n/a	-999	0	8	[-999, -999, -999]	n/a	0	0	0	n/a	n/a	0.0	0	0	0	catFR2	0	R1028M
1022.218	1.201	739419	DISTRACT_END	n/a	n/a	n/a	n/a	-999	0	8	[0, 0, 0]	n/a	0	0	0	n/a	n/a	0.0	0	0	0	catFR2	0	R1028M
1023.419	1.292	740020	REC_START	n/a	n/a	n/a	n/a	-999	0	8	[0, 0, 0]	n/a	0	0	0	n/a	n/a	0.0	0	0	0	catFR2	0	R1028M
1024.711	1.505	740666	REC_WORD	1.292	n/a	SHOVEL	Tools	2	1	8	[0, 0, 0]	n/a	0	0	0	n/a	n/a	0.0	0	0	0	catFR2	0	R1028M
1026.216	1.615	741418	REC_WORD	2.797	n/a	AXE	Tools	1	1	8	[0, 0, 0]	n/a	0	0	0	n/a	n/a	0.0	0	0	0	catFR2	0	R1028M
1027.831	2.629	742226	REC_WORD	4.412	n/a	LEVEL	Tools	8	1	8	[0, 0, 0]	n/a	0	0	0	n/a	n/a	0.0	0	0	0	catFR2	0	R1028M
1030.46	0.568	743540	REC_WORD	7.041	n/a	BLOUSE	Clothing	4	1	8	[0, 0, 0]	n/a	0	0	0	n/a	n/a	0.0	0	0	0	catFR2	0	R1028M
1031.028	0.472	743824	REC_WORD	7.609	n/a	MILK	Beverages	5	1	8	[0, 0, 0]	n/a	0	0	0	n/a	n/a	0.0	0	0	0	catFR2	0	R1028M
1031.5	0.384	744060	REC_WORD	8.081	n/a	TEA	Beverages	10	1	8	[0, 0, 0]	n/a	0	0	0	n/a	n/a	0.0	0	0	0	catFR2	0	R1028M
1031.884	21.546	744252	REC_WORD	8.465	n/a	CIDER	Beverages	9	1	8	[0, 0, 0]	n/a	0	0	0	n/a	n/a	0.0	0	0	0	catFR2	0	R1028M
1053.43	68.208	755024	REC_END	n/a	n/a	n/a	n/a	-999	0	8	[0, 0, 0]	n/a	0	0	0	n/a	n/a	0.0	0	0	0	catFR2	0	R1028M
1121.638	0.0	789124	TRIAL	n/a	n/a	n/a	n/a	-999	0	9	[0, 0, 0]	n/a	0	1	0	n/a	n/a	0.0	0	0	0	catFR2	0	R1028M
1121.638	10.0	789124	COUNTDOWN_START	n/a	n/a	n/a	n/a	-999	0	9	[0, 0, 0]	n/a	0	1	0	n/a	n/a	0.0	0	0	0	catFR2	0	R1028M
1132.066	0.006	794338	COUNTDOWN_END	n/a	n/a	n/a	n/a	-999	0	9	[0, 0, 0]	n/a	0	1	0	n/a	n/a	0.0	0	0	0	catFR2	0	R1028M
1132.072	1.6	794341	ORIENT	n/a	n/a	n/a	n/a	-999	0	9	[0, 0, 0]	n/a	0	1	0	n/a	n/a	0.0	0	0	0	catFR2	0	R1028M
1135.348	4.6	795979	STIM_ON	n/a	n/a	n/a	n/a	-999	0	9	[0, 0, 0]	n/a	1	1	4600	RTG1	RTG10	1500.0	50	230	300	catFR2	0	R1028M
1135.557	1.6	796083	WORD	n/a	wordpools/wordpool_categorized_EN.txt	TRUCK	Vehicles	1	1	9	[0, 0, 0]	n/a	1	1	4600	RTG1	RTG10	1500.0	50	230	300	catFR2	0	R1028M
1138.157	1.6	797383	WORD	n/a	wordpools/wordpool_categorized_EN.txt	VAN	Vehicles	2	1	9	[0, 0, 0]	n/a	1	1	4600	RTG1	RTG10	1500.0	50	230	300	catFR2	0	R1028M
1140.658	1.6	798633	WORD	n/a	wordpools/wordpool_categorized_EN.txt	GRATER	KitchenTools	3	1	9	[0, 0, 0]	n/a	0	1	0	n/a	n/a	0.0	0	0	0	catFR2	0	R1028M
1143.274	1.6	799941	WORD	n/a	wordpools/wordpool_categorized_EN.txt	KNIFE	KitchenTools	4	1	9	[0, 0, 0]	n/a	0	1	0	n/a	n/a	0.0	0	0	0	catFR2	0	R1028M
1145.534	4.6	801071	STIM_ON	n/a	n/a	n/a	n/a	-999	0	9	[0, 0, 0]	n/a	1	1	4600	RTG1	RTG10	1500.0	50	230	300	catFR2	0	R1028M
1145.743	1.6	801176	WORD	n/a	wordpools/wordpool_categorized_EN.txt	SHORTS	Clothing	5	1	9	[0, 0, 0]	n/a	1	1	4600	RTG1	RTG10	1500.0	50	230	300	catFR2	0	R1028M
1148.308	1.6	802458	WORD	n/a	wordpools/wordpool_categorized_EN.txt	SHIRT	Clothing	6	1	9	[0, 0, 0]	n/a	1	1	4600	RTG1	RTG10	1500.0	50	230	300	catFR2	0	R1028M
1150.877	1.6	803742	WORD	n/a	wordpools/wordpool_categorized_EN.txt	SPOON	KitchenTools	7	1	9	[0, 0, 0]	n/a	0	1	0	n/a	n/a	0.0	0	0	0	catFR2	0	R1028M
1153.444	1.6	805026	WORD	n/a	wordpools/wordpool_categorized_EN.txt	TONGS	KitchenTools	8	0	9	[0, 0, 0]	n/a	0	1	0	n/a	n/a	0.0	0	0	0	catFR2	0	R1028M
1155.76	4.6	806183	STIM_ON	n/a	n/a	n/a	n/a	-999	0	9	[0, 0, 0]	n/a	1	1	4600	RTG1	RTG10	1500.0	50	230	300	catFR2	0	R1028M
1155.977	1.6	806292	WORD	n/a	wordpools/wordpool_categorized_EN.txt	MOPED	Vehicles	9	0	9	[0, 0, 0]	n/a	1	1	4600	RTG1	RTG10	1500.0	50	230	300	catFR2	0	R1028M
1158.545	1.6	807576	WORD	n/a	wordpools/wordpool_categorized_EN.txt	PLANE	Vehicles	10	0	9	[0, 0, 0]	n/a	1	1	4600	RTG1	RTG10	1500.0	50	230	300	catFR2	0	R1028M
1160.928	1.6	808767	WORD	n/a	wordpools/wordpool_categorized_EN.txt	JEANS	Clothing	11	0	9	[0, 0, 0]	n/a	0	1	0	n/a	n/a	0.0	0	0	0	catFR2	0	R1028M
1163.328	1.6	809967	WORD	n/a	wordpools/wordpool_categorized_EN.txt	COAT	Clothing	12	1	9	[0, 0, 0]	n/a	0	1	0	n/a	n/a	0.0	0	0	0	catFR2	0	R1028M
1164.945	0.001	810776	DISTRACT_START	n/a	n/a	n/a	n/a	-999	0	9	[0, 0, 0]	n/a	0	1	0	n/a	n/a	0.0	0	0	0	catFR2	0	R1028M
1164.946	0.016	810776	START	n/a	n/a	n/a	n/a	-999	0	9	[-999, -999, -999]	n/a	0	1	0	n/a	n/a	0.0	0	0	0	catFR2	0	R1028M
1164.962	3.234	810784	PROB	3.204	n/a	n/a	n/a	-999	0	9	[4, 1, 5]	11	0	1	0	n/a	n/a	0.0	0	0	0	catFR2	0	R1028M
1168.196	6.402	812401	PROB	6.379	n/a	n/a	n/a	-999	0	9	[9, 4, 3]	16	0	1	0	n/a	n/a	0.0	0	0	0	catFR2	0	R1028M
1174.598	8.751	815602	PROB	8.728	n/a	n/a	n/a	-999	0	9	[9, 9, 4]	22	0	1	0	n/a	n/a	0.0	0	0	0	catFR2	0	R1028M
1183.349	5.114	819977	PROB	5.114	n/a	n/a	n/a	-999	0	9	[7, 7, 8]	22	0	1	0	n/a	n/a	0.0	0	0	0	catFR2	0	R1028M
1188.463	0.004	822533	STOP	n/a	n/a	n/a	n/a	-999	0	9	[-999, -999, -999]	n/a	0	1	0	n/a	n/a	0.0	0	0	0	catFR2	0	R1028M
1188.467	1.135	822535	DISTRACT_END	n/a	n/a	n/a	n/a	-999	0	9	[0, 0, 0]	n/a	0	1	0	n/a	n/a	0.0	0	0	0	catFR2	0	R1028M
1189.602	1.913	823103	REC_START	n/a	n/a	n/a	n/a	-999	0	9	[0, 0, 0]	n/a	0	1	0	n/a	n/a	0.0	0	0	0	catFR2	0	R1028M
1191.515	1.674	824059	REC_WORD	1.913	n/a	TRUCK	Vehicles	1	1	9	[0, 0, 0]	n/a	0	1	0	n/a	n/a	0.0	0	0	0	catFR2	0	R1028M
1193.189	2.028	824896	REC_WORD	3.587	n/a	VAN	Vehicles	2	1	9	[0, 0, 0]	n/a	0	1	0	n/a	n/a	0.0	0	0	0	catFR2	0	R1028M
1195.217	1.593	825910	REC_WORD	5.615	n/a	KNIFE	KitchenTools	4	1	9	[0, 0, 0]	n/a	0	1	0	n/a	n/a	0.0	0	0	0	catFR2	0	R1028M
1196.81	1.114	826706	REC_WORD	7.208	n/a	GRATER	KitchenTools	3	1	9	[0, 0, 0]	n/a	0	1	0	n/a	n/a	0.0	0	0	0	catFR2	0	R1028M
1197.924	2.016	827263	REC_WORD	8.322	n/a	SPOON	KitchenTools	7	1	9	[0, 0, 0]	n/a	0	1	0	n/a	n/a	0.0	0	0	0	catFR2	0	R1028M
1199.94	1.935	828271	REC_WORD	10.338	n/a	SHORTS	Clothing	5	1	9	[0, 0, 0]	n/a	0	1	0	n/a	n/a	0.0	0	0	0	catFR2	0	R1028M
1201.875	2.0	829239	REC_WORD	12.273	n/a	SHIRT	Clothing	6	1	9	[0, 0, 0]	n/a	0	1	0	n/a	n/a	0.0	0	0	0	catFR2	0	R1028M
1203.875	1.533	830239	REC_WORD	14.273	n/a	PANTS	n/a	-999	0	9	[0, 0, 0]	n/a	0	1	0	n/a	n/a	0.0	0	0	0	catFR2	0	R1028M
1205.408	14.205	831005	REC_WORD	15.806	n/a	COAT	Clothing	12	1	9	[0, 0, 0]	n/a	0	1	0	n/a	n/a	0.0	0	0	0	catFR2	0	R1028M
1219.613	28.149	838107	REC_END	n/a	n/a	n/a	n/a	-999	0	9	[0, 0, 0]	n/a	0	1	0	n/a	n/a	0.0	0	0	0	catFR2	0	R1028M
1247.762	0.0	852180	TRIAL	n/a	n/a	n/a	n/a	-999	0	10	[0, 0, 0]	n/a	0	1	0	n/a	n/a	0.0	0	0	0	catFR2	0	R1028M
1247.762	10.0	852180	COUNTDOWN_START	n/a	n/a	n/a	n/a	-999	0	10	[0, 0, 0]	n/a	0	1	0	n/a	n/a	0.0	0	0	0	catFR2	0	R1028M
1258.19	0.007	857393	COUNTDOWN_END	n/a	n/a	n/a	n/a	-999	0	10	[0, 0, 0]	n/a	0	1	0	n/a	n/a	0.0	0	0	0	catFR2	0	R1028M
1258.197	1.6	857397	ORIENT	n/a	n/a	n/a	n/a	-999	0	10	[0, 0, 0]	n/a	0	1	0	n/a	n/a	0.0	0	0	0	catFR2	0	R1028M
1261.782	1.6	859189	WORD	n/a	wordpools/wordpool_categorized_EN.txt	BASKETBALL	Toys	1	1	10	[0, 0, 0]	n/a	0	1	0	n/a	n/a	0.0	0	0	0	catFR2	0	R1028M
1264.281	1.6	860438	WORD	n/a	wordpools/wordpool_categorized_EN.txt	BALL	Toys	2	1	10	[0, 0, 0]	n/a	0	1	0	n/a	n/a	0.0	0	0	0	catFR2	0	R1028M
1266.66	4.6	861628	STIM_ON	n/a	n/a	n/a	n/a	-999	0	10	[0, 0, 0]	n/a	1	1	4600	RTG1	RTG10	1500.0	50	230	300	catFR2	0	R1028M
1266.866	1.6	861731	WORD	n/a	wordpools/wordpool_categorized_EN.txt	SNOW	Weather	3	1	10	[0, 0, 0]	n/a	1	1	4600	RTG1	RTG10	1500.0	50	230	300	catFR2	0	R1028M
1269.315	1.6	862955	WORD	n/a	wordpools/wordpool_categorized_EN.txt	TORNADO	Weather	4	0	10	[0, 0, 0]	n/a	1	1	4600	RTG1	RTG10	1500.0	50	230	300	catFR2	0	R1028M
1271.9	1.6	864248	WORD	n/a	wordpools/wordpool_categorized_EN.txt	CYPRESS	Trees	5	0	10	[0, 0, 0]	n/a	0	1	0	n/a	n/a	0.0	0	0	0	catFR2	0	R1028M
1274.366	1.6	865480	WORD	n/a	wordpools/wordpool_categorized_EN.txt	SPRUCE	Trees	6	0	10	[0, 0, 0]	n/a	0	1	0	n/a	n/a	0.0	0	0	0	catFR2	0	R1028M
1276.611	4.6	866603	STIM_ON	n/a	n/a	n/a	n/a	-999	0	10	[0, 0, 0]	n/a	1	1	4600	RTG1	RTG10	1500.0	50	230	300	catFR2	0	R1028M
1276.818	1.6	866706	WORD	n/a	wordpools/wordpool_categorized_EN.txt	RAIN	Weather	7	1	10	[0, 0, 0]	n/a	1	1	4600	RTG1	RTG10	1500.0	50	230	300	catFR2	0	R1028M
1279.301	1.6	867948	WORD	n/a	wordpools/wordpool_categorized_EN.txt	WIND	Weather	8	1	10	[0, 0, 0]	n/a	1	1	4600	RTG1	RTG10	1500.0	50	230	300	catFR2	0	R1028M
1281.852	1.6	869223	WORD	n/a	wordpools/wordpool_categorized_EN.txt	BARBIE	Toys	9	1	10	[0, 0, 0]	n/a	0	1	0	n/a	n/a	0.0	0	0	0	catFR2	0	R1028M
1284.368	1.6	870481	WORD	n/a	wordpools/wordpool_categorized_EN.txt	SLINKY	Toys	10	1	10	[0, 0, 0]	n/a	0	1	0	n/a	n/a	0.0	0	0	0	catFR2	0	R1028M
1286.667	4.6	871630	STIM_ON	n/a	n/a	n/a	n/a	-999	0	10	[0, 0, 0]	n/a	1	1	4600	RTG1	RTG10	1500.0	50	230	300	catFR2	0	R1028M
1286.87	1.6	871732	WORD	n/a	wordpools/wordpool_categorized_EN.txt	OAK	Trees	11	1	10	[0, 0, 0]	n/a	1	1	4600	RTG1	RTG10	1500.0	50	230	300	catFR2	0	R1028M
1289.336	1.6	872965	WORD	n/a	wordpools/wordpool_categorized_EN.txt	EVERGREEN	Trees	12	1	10	[0, 0, 0]	n/a	1	1	4600	RTG1	RTG10	1500.0	50	230	300	catFR2	0	R1028M
1290.953	0.001	873773	DISTRACT_START	n/a	n/a	n/a	n/a	-999	0	10	[0, 0, 0]	n/a	0	1	0	n/a	n/a	0.0	0	0	0	catFR2	0	R1028M
1290.954	0.016	873774	START	n/a	n/a	n/a	n/a	-999	0	10	[-999, -999, -999]	n/a	0	1	0	n/a	n/a	0.0	0	0	0	catFR2	0	R1028M
1290.97	5.635	873782	PROB	5.613	n/a	n/a	n/a	-999	0	10	[6, 5, 8]	19	0	1	0	n/a	n/a	0.0	0	0	0	catFR2	0	R1028M
1296.605	2.4	876599	PROB	2.377	n/a	n/a	n/a	-999	0	10	[1, 6, 9]	16	0	1	0	n/a	n/a	0.0	0	0	0	catFR2	0	R1028M
1299.005	3.033	877799	PROB	3.009	n/a	n/a	n/a	-999	0	10	[5, 2, 1]	8	0	1	0	n/a	n/a	0.0	0	0	0	catFR2	0	R1028M
1302.038	2.452	879315	PROB	2.417	n/a	n/a	n/a	-999	0	10	[8, 2, 5]	15	0	1	0	n/a	n/a	0.0	0	0	0	catFR2	0	R1028M
1304.49	2.766	880541	PROB	2.732	n/a	n/a	n/a	-999	0	10	[8, 2, 3]	13	0	1	0	n/a	n/a	0.0	0	0	0	catFR2	0	R1028M
1307.256	3.167	881924	PROB	3.134	n/a	n/a	n/a	-999	0	10	[6, 7, 7]	20	0	1	0	n/a	n/a	0.0	0	0	0	catFR2	0	R1028M
1310.423	3.687	883507	PROB	3.687	n/a	n/a	n/a	-999	0	10	[6, 5, 3]	14	0	1	0	n/a	n/a	0.0	0	0	0	catFR2	0	R1028M
1314.11	0.014	885350	STOP	n/a	n/a	n/a	n/a	-999	0	10	[-999, -999, -999]	n/a	0	1	0	n/a	n/a	0.0	0	0	0	catFR2	0	R1028M
1314.124	1.034	885357	DISTRACT_END	n/a	n/a	n/a	n/a	-999	0	10	[0, 0, 0]	n/a	0	1	0	n/a	n/a	0.0	0	0	0	catFR2	0	R1028M
1315.158	0.812	885874	REC_START	n/a	n/a	n/a	n/a	-999	0	10	[0, 0, 0]	n/a	0	1	0	n/a	n/a	0.0	0	0	0	catFR2	0	R1028M
1315.97	1.299	886280	REC_WORD	0.812	n/a	BASKETBALL	Toys	1	1	10	[0, 0, 0]	n/a	0	1	0	n/a	n/a	0.0	0	0	0	catFR2	0	R1028M
1317.269	1.304	886930	REC_WORD	2.111	n/a	BALL	Toys	2	1	10	[0, 0, 0]	n/a	0	1	0	n/a	n/a	0.0	0	0	0	catFR2	0	R1028M
1318.573	0.875	887582	REC_WORD	3.415	n/a	RAIN	Weather	7	1	10	[0, 0, 0]	n/a	0	1	0	n/a	n/a	0.0	0	0	0	catFR2	0	R1028M
1319.448	0.608	888019	REC_WORD	4.29	n/a	WIND	Weather	8	1	10	[0, 0, 0]	n/a	0	1	0	n/a	n/a	0.0	0	0	0	catFR2	0	R1028M
1320.056	1.203	888323	REC_WORD	4.898	n/a	SNOW	Weather	3	1	10	[0, 0, 0]	n/a	0	1	0	n/a	n/a	0.0	0	0	0	catFR2	0	R1028M
1321.259	0.641	888924	REC_WORD	6.101	n/a	BARBIE	Toys	9	1	10	[0, 0, 0]	n/a	0	1	0	n/a	n/a	0.0	0	0	0	catFR2	0	R1028M
1321.9	6.456	889245	REC_WORD	6.742	n/a	SLINKY	Toys	10	1	10	[0, 0, 0]	n/a	0	1	0	n/a	n/a	0.0	0	0	0	catFR2	0	R1028M
1328.356	1.404	892473	REC_WORD	13.198	n/a	EVERGREEN	Trees	12	1	10	[0, 0, 0]	n/a	0	1	0	n/a	n/a	0.0	0	0	0	catFR2	0	R1028M
1329.76	0.737	893175	REC_WORD	14.602	n/a	CEDAR	n/a	-999	0	10	[0, 0, 0]	n/a	0	1	0	n/a	n/a	0.0	0	0	0	catFR2	0	R1028M
1330.497	14.672	893543	REC_WORD	15.339	n/a	OAK	Trees	11	1	10	[0, 0, 0]	n/a	0	1	0	n/a	n/a	0.0	0	0	0	catFR2	0	R1028M
1345.169	13.681	900878	REC_END	n/a	n/a	n/a	n/a	-999	0	10	[0, 0, 0]	n/a	0	1	0	n/a	n/a	0.0	0	0	0	catFR2	0	R1028M
1358.85	10.0	907718	COUNTDOWN_START	n/a	n/a	n/a	n/a	-999	0	11	[0, 0, 0]	n/a	0	0	0	n/a	n/a	0.0	0	0	0	catFR2	0	R1028M
1358.851	10.427	907719	TRIAL	n/a	n/a	n/a	n/a	-999	0	11	[0, 0, 0]	n/a	0	0	0	n/a	n/a	0.0	0	0	0	catFR2	0	R1028M
1369.278	0.007	912931	COUNTDOWN_END	n/a	n/a	n/a	n/a	-999	0	11	[0, 0, 0]	n/a	0	0	0	n/a	n/a	0.0	0	0	0	catFR2	0	R1028M
1369.285	1.6	912935	ORIENT	n/a	n/a	n/a	n/a	-999	0	11	[0, 0, 0]	n/a	0	0	0	n/a	n/a	0.0	0	0	0	catFR2	0	R1028M
1373.152	1.6	914868	WORD	n/a	wordpools/wordpool_categorized_EN.txt	DRYER	Appliances	1	1	11	[0, 0, 0]	n/a	0	0	0	n/a	n/a	0.0	0	0	0	catFR2	0	R1028M
1375.67	1.6	916127	WORD	n/a	wordpools/wordpool_categorized_EN.txt	DISHWASHER	Appliances	2	0	11	[0, 0, 0]	n/a	0	0	0	n/a	n/a	0.0	0	0	0	catFR2	0	R1028M
1378.086	1.6	917335	WORD	n/a	wordpools/wordpool_categorized_EN.txt	THUNDERSTORM	Weather	3	1	11	[0, 0, 0]	n/a	0	0	0	n/a	n/a	0.0	0	0	0	catFR2	0	R1028M
1380.655	1.6	918619	WORD	n/a	wordpools/wordpool_categorized_EN.txt	HURRICANE	Weather	4	0	11	[0, 0, 0]	n/a	0	0	0	n/a	n/a	0.0	0	0	0	catFR2	0	R1028M
1383.137	1.6	919860	WORD	n/a	wordpools/wordpool_categorized_EN.txt	BEER	Beverages	5	1	11	[0, 0, 0]	n/a	0	0	0	n/a	n/a	0.0	0	0	0	catFR2	0	R1028M
1385.522	1.6	921053	WORD	n/a	wordpools/wordpool_categorized_EN.txt	COFFEE	Beverages	6	1	11	[0, 0, 0]	n/a	0	0	0	n/a	n/a	0.0	0	0	0	catFR2	0	R1028M
1388.022	1.6	922303	WORD	n/a	wordpools/wordpool_categorized_EN.txt	HUMIDITY	Weather	7	1	11	[0, 0, 0]	n/a	0	0	0	n/a	n/a	0.0	0	0	0	catFR2	0	R1028M
1390.49	1.6	923536	WORD	n/a	wordpools/wordpool_categorized_EN.txt	DRIZZLE	Weather	8	1	11	[0, 0, 0]	n/a	0	0	0	n/a	n/a	0.0	0	0	0	catFR2	0	R1028M
1392.89	1.6	924736	WORD	n/a	wordpools/wordpool_categorized_EN.txt	BLENDER	Appliances	9	1	11	[0, 0, 0]	n/a	0	0	0	n/a	n/a	0.0	0	0	0	catFR2	0	R1028M
1395.306	1.6	925944	WORD	n/a	wordpools/wordpool_categorized_EN.txt	REFRIGERATOR	Appliances	10	1	11	[0, 0, 0]	n/a	0	0	0	n/a	n/a	0.0	0	0	0	catFR2	0	R1028M
1397.725	1.6	927154	WORD	n/a	wordpools/wordpool_categorized_EN.txt	JUICE	Beverages	11	1	11	[0, 0, 0]	n/a	0	0	0	n/a	n/a	0.0	0	0	0	catFR2	0	R1028M
1400.291	1.6	928436	WORD	n/a	wordpools/wordpool_categorized_EN.txt	LEMONADE	Beverages	12	0	11	[0, 0, 0]	n/a	0	0	0	n/a	n/a	0.0	0	0	0	catFR2	0	R1028M
1401.908	0.001	929245	DISTRACT_START	n/a	n/a	n/a	n/a	-999	0	11	[0, 0, 0]	n/a	0	0	0	n/a	n/a	0.0	0	0	0	catFR2	0	R1028M
1401.909	0.015	929245	START	n/a	n/a	n/a	n/a	-999	0	11	[-999, -999, -999]	n/a	0	0	0	n/a	n/a	0.0	0	0	0	catFR2	0	R1028M
1401.924	2.585	929253	PROB	2.563	n/a	n/a	n/a	-999	0	11	[8, 2, 2]	12	0	0	0	n/a	n/a	0.0	0	0	0	catFR2	0	R1028M
1404.509	2.167	930545	PROB	2.146	n/a	n/a	n/a	-999	0	11	[6, 6, 6]	18	0	0	0	n/a	n/a	0.0	0	0	0	catFR2	0	R1028M
1406.676	2.65	931629	PROB	2.626	n/a	n/a	n/a	-999	0	11	[6, 7, 3]	16	0	0	0	n/a	n/a	0.0	0	0	0	catFR2	0	R1028M
1409.326	4.468	932953	PROB	4.441	n/a	n/a	n/a	-999	0	11	[9, 9, 7]	25	0	0	0	n/a	n/a	0.0	0	0	0	catFR2	0	R1028M
1413.794	2.533	935187	PROB	2.508	n/a	n/a	n/a	-999	0	11	[2, 3, 5]	7	0	0	0	n/a	n/a	0.0	0	0	0	catFR2	0	R1028M
1416.327	2.634	936454	PROB	2.599	n/a	n/a	n/a	-999	0	11	[3, 1, 9]	13	0	0	0	n/a	n/a	0.0	0	0	0	catFR2	0	R1028M
1418.961	2.885	937770	PROB	2.862	n/a	n/a	n/a	-999	0	11	[2, 8, 1]	11	0	0	0	n/a	n/a	0.0	0	0	0	catFR2	0	R1028M
1421.846	3.673	939213	PROB	3.673	n/a	n/a	n/a	-999	0	11	[6, 3, 9]	18	0	0	0	n/a	n/a	0.0	0	0	0	catFR2	0	R1028M
1425.519	0.011	941049	STOP	n/a	n/a	n/a	n/a	-999	0	11	[-999, -999, -999]	n/a	0	0	0	n/a	n/a	0.0	0	0	0	catFR2	0	R1028M
1425.53	1.201	941055	DISTRACT_END	n/a	n/a	n/a	n/a	-999	0	11	[0, 0, 0]	n/a	0	0	0	n/a	n/a	0.0	0	0	0	catFR2	0	R1028M
1426.731	3.385	941655	REC_START	n/a	n/a	n/a	n/a	-999	0	11	[0, 0, 0]	n/a	0	0	0	n/a	n/a	0.0	0	0	0	catFR2	0	R1028M
1430.116	3.026	943347	REC_WORD	3.385	n/a	TORNADO	n/a	-999	0	11	[0, 0, 0]	n/a	0	0	0	n/a	n/a	0.0	0	0	0	catFR2	0	R1028M
1433.142	4.636	944860	REC_WORD	6.411	n/a	THUNDERSTORM	Weather	3	1	11	[0, 0, 0]	n/a	0	0	0	n/a	n/a	0.0	0	0	0	catFR2	0	R1028M
1437.778	0.512	947178	REC_WORD	11.047	n/a	BEER	Beverages	5	1	11	[0, 0, 0]	n/a	0	0	0	n/a	n/a	0.0	0	0	0	catFR2	0	R1028M
1438.29	0.533	947434	REC_WORD	11.559	n/a	REFRIGERATOR	Appliances	10	1	11	[0, 0, 0]	n/a	0	0	0	n/a	n/a	0.0	0	0	0	catFR2	0	R1028M
1438.823	0.641	947700	REC_WORD	12.092	n/a	DRYER	Appliances	1	1	11	[0, 0, 0]	n/a	0	0	0	n/a	n/a	0.0	0	0	0	catFR2	0	R1028M
1439.464	3.596	948021	REC_WORD	12.733	n/a	WASHER	n/a	-999	0	11	[0, 0, 0]	n/a	0	0	0	n/a	n/a	0.0	0	0	0	catFR2	0	R1028M
1443.06	0.642	949819	REC_WORD	16.329	n/a	COFFEE	Beverages	6	1	11	[0, 0, 0]	n/a	0	0	0	n/a	n/a	0.0	0	0	0	catFR2	0	R1028M
1443.702	2.027	950140	REC_WORD	16.971	n/a	JUICE	Beverages	11	1	11	[0, 0, 0]	n/a	0	0	0	n/a	n/a	0.0	0	0	0	catFR2	0	R1028M
1445.729	0.653	951153	REC_WORD	18.998	n/a	RAIN	n/a	-999	0	11	[0, 0, 0]	n/a	0	0	0	n/a	n/a	0.0	0	0	0	catFR2	0	R1028M
1446.382	0.54	951479	REC_WORD	19.651	n/a	DRIZZLE	Weather	8	1	11	[0, 0, 0]	n/a	0	0	0	n/a	n/a	0.0	0	0	0	catFR2	0	R1028M
1446.922	7.597	951749	REC_WORD	20.191	n/a	HUMIDITY	Weather	7	1	11	[0, 0, 0]	n/a	0	0	0	n/a	n/a	0.0	0	0	0	catFR2	0	R1028M
1454.519	0.896	955548	REC_WORD	27.788	n/a	BLENDER	Appliances	9	1	11	[0, 0, 0]	n/a	0	0	0	n/a	n/a	0.0	0	0	0	catFR2	0	R1028M
1455.415	1.327	955996	REC_WORD	28.684	n/a	MIXER	n/a	-999	0	11	[0, 0, 0]	n/a	0	0	0	n/a	n/a	0.0	0	0	0	catFR2	0	R1028M
1456.742	48.386	956659	REC_END	n/a	n/a	n/a	n/a	-999	0	11	[0, 0, 0]	n/a	0	0	0	n/a	n/a	0.0	0	0	0	catFR2	0	R1028M
1505.128	0.0	980849	TRIAL	n/a	n/a	n/a	n/a	-999	0	12	[0, 0, 0]	n/a	0	1	0	n/a	n/a	0.0	0	0	0	catFR2	0	R1028M
1505.128	10.0	980849	COUNTDOWN_START	n/a	n/a	n/a	n/a	-999	0	12	[0, 0, 0]	n/a	0	1	0	n/a	n/a	0.0	0	0	0	catFR2	0	R1028M
1515.556	0.008	986063	COUNTDOWN_END	n/a	n/a	n/a	n/a	-999	0	12	[0, 0, 0]	n/a	0	1	0	n/a	n/a	0.0	0	0	0	catFR2	0	R1028M
1515.564	1.6	986067	ORIENT	n/a	n/a	n/a	n/a	-999	0	12	[0, 0, 0]	n/a	0	1	0	n/a	n/a	0.0	0	0	0	catFR2	0	R1028M
1519.03	1.6	987800	WORD	n/a	wordpools/wordpool_categorized_EN.txt	PHONE	Electronics	1	1	12	[0, 0, 0]	n/a	0	1	0	n/a	n/a	0.0	0	0	0	catFR2	0	R1028M
1521.598	1.6	989084	WORD	n/a	wordpools/wordpool_categorized_EN.txt	PRINTER	Electronics	2	1	12	[0, 0, 0]	n/a	0	1	0	n/a	n/a	0.0	0	0	0	catFR2	0	R1028M
1523.98	4.6	990274	STIM_ON	n/a	n/a	n/a	n/a	-999	0	12	[0, 0, 0]	n/a	1	1	4600	RTG1	RTG10	1500.0	50	230	300	catFR2	0	R1028M
1524.198	1.6	990383	WORD	n/a	wordpools/wordpool_categorized_EN.txt	PLUM	Fruit	3	1	12	[0, 0, 0]	n/a	1	1	4600	RTG1	RTG10	1500.0	50	230	300	catFR2	0	R1028M
1526.733	1.6	991651	WORD	n/a	wordpools/wordpool_categorized_EN.txt	ORANGE	Fruit	4	1	12	[0, 0, 0]	n/a	1	1	4600	RTG1	RTG10	1500.0	50	230	300	catFR2	0	R1028M
1529.199	1.6	992884	WORD	n/a	wordpools/wordpool_categorized_EN.txt	CRAB	OceanAnimals	5	0	12	[0, 0, 0]	n/a	0	1	0	n/a	n/a	0.0	0	0	0	catFR2	0	R1028M
1531.75	1.6	994159	WORD	n/a	wordpools/wordpool_categorized_EN.txt	OCTOPUS	OceanAnimals	6	1	12	[0, 0, 0]	n/a	0	1	0	n/a	n/a	0.0	0	0	0	catFR2	0	R1028M
1534.153	4.6	995360	STIM_ON	n/a	n/a	n/a	n/a	-999	0	12	[0, 0, 0]	n/a	1	1	4600	RTG1	RTG10	1500.0	50	230	300	catFR2	0	R1028M
1534.367	1.6	995467	WORD	n/a	wordpools/wordpool_categorized_EN.txt	TABLET	Electronics	7	1	12	[0, 0, 0]	n/a	1	1	4600	RTG1	RTG10	1500.0	50	230	300	catFR2	0	R1028M
1536.768	1.6	996668	WORD	n/a	wordpools/wordpool_categorized_EN.txt	RADIO	Electronics	8	0	12	[0, 0, 0]	n/a	1	1	4600	RTG1	RTG10	1500.0	50	230	300	catFR2	0	R1028M
1539.384	1.6	997976	WORD	n/a	wordpools/wordpool_categorized_EN.txt	SQUID	OceanAnimals	9	1	12	[0, 0, 0]	n/a	0	1	0	n/a	n/a	0.0	0	0	0	catFR2	0	R1028M
1541.985	1.6	999276	WORD	n/a	wordpools/wordpool_categorized_EN.txt	SHRIMP	OceanAnimals	10	1	12	[0, 0, 0]	n/a	0	1	0	n/a	n/a	0.0	0	0	0	catFR2	0	R1028M
1544.19	4.6	1000378	STIM_ON	n/a	n/a	n/a	n/a	-999	0	12	[0, 0, 0]	n/a	1	1	4600	RTG1	RTG10	1500.0	50	230	300	catFR2	0	R1028M
1544.402	1.6	1000484	WORD	n/a	wordpools/wordpool_categorized_EN.txt	CHERRY	Fruit	11	1	12	[0, 0, 0]	n/a	1	1	4600	RTG1	RTG10	1500.0	50	230	300	catFR2	0	R1028M
1546.787	1.6	1001677	WORD	n/a	wordpools/wordpool_categorized_EN.txt	STRAWBERRY	Fruit	12	1	12	[0, 0, 0]	n/a	1	1	4600	RTG1	RTG10	1500.0	50	230	300	catFR2	0	R1028M
1548.403	0.001	1002485	DISTRACT_START	n/a	n/a	n/a	n/a	-999	0	12	[0, 0, 0]	n/a	0	1	0	n/a	n/a	0.0	0	0	0	catFR2	0	R1028M
1548.404	0.015	1002485	START	n/a	n/a	n/a	n/a	-999	0	12	[-999, -999, -999]	n/a	0	1	0	n/a	n/a	0.0	0	0	0	catFR2	0	R1028M
1548.419	8.353	1002493	PROB	8.332	n/a	n/a	n/a	-999	0	12	[1, 7, 5]	13	0	1	0	n/a	n/a	0.0	0	0	0	catFR2	0	R1028M
1556.772	7.35	1006669	PROB	7.33	n/a	n/a	n/a	-999	0	12	[7, 6, 9]	22	0	1	0	n/a	n/a	0.0	0	0	0	catFR2	0	R1028M
1564.122	2.284	1010343	PROB	2.26	n/a	n/a	n/a	-999	0	12	[9, 1, 6]	16	0	1	0	n/a	n/a	0.0	0	0	0	catFR2	0	R1028M
1566.406	2.904	1011485	PROB	2.904	n/a	n/a	n/a	-999	0	12	[2, 7, 8]	17	0	1	0	n/a	n/a	0.0	0	0	0	catFR2	0	R1028M
1569.31	0.013	1012937	STOP	n/a	n/a	n/a	n/a	-999	0	12	[-999, -999, -999]	n/a	0	1	0	n/a	n/a	0.0	0	0	0	catFR2	0	R1028M
1569.323	1.169	1012944	DISTRACT_END	n/a	n/a	n/a	n/a	-999	0	12	[0, 0, 0]	n/a	0	1	0	n/a	n/a	0.0	0	0	0	catFR2	0	R1028M
1570.492	3.849	1013528	REC_START	n/a	n/a	n/a	n/a	-999	0	12	[0, 0, 0]	n/a	0	1	0	n/a	n/a	0.0	0	0	0	catFR2	0	R1028M
1574.341	0.791	1015452	REC_WORD	3.849	n/a	OCTOPUS	OceanAnimals	6	1	12	[0, 0, 0]	n/a	0	1	0	n/a	n/a	0.0	0	0	0	catFR2	0	R1028M
1575.132	0.96	1015848	REC_WORD	4.64	n/a	SQUID	OceanAnimals	9	1	12	[0, 0, 0]	n/a	0	1	0	n/a	n/a	0.0	0	0	0	catFR2	0	R1028M
1576.092	3.623	1016328	REC_WORD	5.6	n/a	SHRIMP	OceanAnimals	10	1	12	[0, 0, 0]	n/a	0	1	0	n/a	n/a	0.0	0	0	0	catFR2	0	R1028M
1579.715	0.822	1018139	REC_WORD	9.223	n/a	CHERRY	Fruit	11	1	12	[0, 0, 0]	n/a	0	1	0	n/a	n/a	0.0	0	0	0	catFR2	0	R1028M
1580.537	3.011	1018550	REC_WORD	10.045	n/a	STRAWBERRY	Fruit	12	1	12	[0, 0, 0]	n/a	0	1	0	n/a	n/a	0.0	0	0	0	catFR2	0	R1028M
1583.548	1.074	1020055	REC_WORD	13.056	n/a	PLUM	Fruit	3	1	12	[0, 0, 0]	n/a	0	1	0	n/a	n/a	0.0	0	0	0	catFR2	0	R1028M
1584.622	0.78	1020592	REC_WORD	14.13	n/a	ORANGE	Fruit	4	1	12	[0, 0, 0]	n/a	0	1	0	n/a	n/a	0.0	0	0	0	catFR2	0	R1028M
1585.402	1.026	1020982	REC_WORD	14.91	n/a	PRINTER	Electronics	2	1	12	[0, 0, 0]	n/a	0	1	0	n/a	n/a	0.0	0	0	0	catFR2	0	R1028M
1586.428	1.075	1021495	REC_WORD	15.936	n/a	TABLET	Electronics	7	1	12	[0, 0, 0]	n/a	0	1	0	n/a	n/a	0.0	0	0	0	catFR2	0	R1028M
1587.503	12.999	1022033	REC_WORD	17.011	n/a	PHONE	Electronics	1	1	12	[0, 0, 0]	n/a	0	1	0	n/a	n/a	0.0	0	0	0	catFR2	0	R1028M
1600.502	6.679	1028532	REC_END	n/a	n/a	n/a	n/a	-999	0	12	[0, 0, 0]	n/a	0	1	0	n/a	n/a	0.0	0	0	0	catFR2	0	R1028M
1607.181	0.0	1031871	TRIAL	n/a	n/a	n/a	n/a	-999	0	13	[0, 0, 0]	n/a	0	1	0	n/a	n/a	0.0	0	0	0	catFR2	0	R1028M
1607.181	10.0	1031871	COUNTDOWN_START	n/a	n/a	n/a	n/a	-999	0	13	[0, 0, 0]	n/a	0	1	0	n/a	n/a	0.0	0	0	0	catFR2	0	R1028M
1617.609	0.008	1037084	COUNTDOWN_END	n/a	n/a	n/a	n/a	-999	0	13	[0, 0, 0]	n/a	0	1	0	n/a	n/a	0.0	0	0	0	catFR2	0	R1028M
1617.617	1.6	1037088	ORIENT	n/a	n/a	n/a	n/a	-999	0	13	[0, 0, 0]	n/a	0	1	0	n/a	n/a	0.0	0	0	0	catFR2	0	R1028M
1620.906	4.6	1038732	STIM_ON	n/a	n/a	n/a	n/a	-999	0	13	[0, 0, 0]	n/a	1	1	4600	RTG1	RTG10	1500.0	50	230	300	catFR2	0	R1028M
1621.117	1.6	1038838	WORD	n/a	wordpools/wordpool_categorized_EN.txt	TELEVISION	Electronics	1	1	13	[0, 0, 0]	n/a	1	1	4600	RTG1	RTG10	1500.0	50	230	300	catFR2	0	R1028M
1623.551	1.6	1040055	WORD	n/a	wordpools/wordpool_categorized_EN.txt	HEADPHONES	Electronics	2	1	13	[0, 0, 0]	n/a	1	1	4600	RTG1	RTG10	1500.0	50	230	300	catFR2	0	R1028M
1625.951	1.6	1041255	WORD	n/a	wordpools/wordpool_categorized_EN.txt	FUDGE	Desserts	3	1	13	[0, 0, 0]	n/a	0	1	0	n/a	n/a	0.0	0	0	0	catFR2	0	R1028M
1628.385	1.6	1042472	WORD	n/a	wordpools/wordpool_categorized_EN.txt	COOKIE	Desserts	4	1	13	[0, 0, 0]	n/a	0	1	0	n/a	n/a	0.0	0	0	0	catFR2	0	R1028M
1630.756	4.6	1043657	STIM_ON	n/a	n/a	n/a	n/a	-999	0	13	[0, 0, 0]	n/a	1	1	4600	RTG1	RTG10	1500.0	50	230	300	catFR2	0	R1028M
1630.969	1.6	1043763	WORD	n/a	wordpools/wordpool_categorized_EN.txt	WOODS	Landscapes	5	1	13	[0, 0, 0]	n/a	1	1	4600	RTG1	RTG10	1500.0	50	230	300	catFR2	0	R1028M
1633.52	1.6	1045039	WORD	n/a	wordpools/wordpool_categorized_EN.txt	MOUNTAIN	Landscapes	6	1	13	[0, 0, 0]	n/a	1	1	4600	RTG1	RTG10	1500.0	50	230	300	catFR2	0	R1028M
1635.936	1.6	1046247	WORD	n/a	wordpools/wordpool_categorized_EN.txt	PASTRY	Desserts	7	1	13	[0, 0, 0]	n/a	0	1	0	n/a	n/a	0.0	0	0	0	catFR2	0	R1028M
1638.537	1.6	1047547	WORD	n/a	wordpools/wordpool_categorized_EN.txt	JELLO	Desserts	8	1	13	[0, 0, 0]	n/a	0	1	0	n/a	n/a	0.0	0	0	0	catFR2	0	R1028M
1640.898	4.6	1048727	STIM_ON	n/a	n/a	n/a	n/a	-999	0	13	[0, 0, 0]	n/a	1	1	4600	RTG1	RTG10	1500.0	50	230	300	catFR2	0	R1028M
1641.104	1.6	1048830	WORD	n/a	wordpools/wordpool_categorized_EN.txt	COMPUTER	Electronics	9	1	13	[0, 0, 0]	n/a	1	1	4600	RTG1	RTG10	1500.0	50	230	300	catFR2	0	R1028M
1643.555	1.6	1050056	WORD	n/a	wordpools/wordpool_categorized_EN.txt	CALCULATOR	Electronics	10	1	13	[0, 0, 0]	n/a	1	1	4600	RTG1	RTG10	1500.0	50	230	300	catFR2	0	R1028M
1646.105	1.6	1051331	WORD	n/a	wordpools/wordpool_categorized_EN.txt	BEACH	Landscapes	11	1	13	[0, 0, 0]	n/a	0	1	0	n/a	n/a	0.0	0	0	0	catFR2	0	R1028M
1648.54	1.6	1052548	WORD	n/a	wordpools/wordpool_categorized_EN.txt	HILLS	Landscapes	12	1	13	[0, 0, 0]	n/a	0	1	0	n/a	n/a	0.0	0	0	0	catFR2	0	R1028M
1650.156	0.001	1053356	DISTRACT_START	n/a	n/a	n/a	n/a	-999	0	13	[0, 0, 0]	n/a	0	1	0	n/a	n/a	0.0	0	0	0	catFR2	0	R1028M
1650.157	0.015	1053356	START	n/a	n/a	n/a	n/a	-999	0	13	[-999, -999, -999]	n/a	0	1	0	n/a	n/a	0.0	0	0	0	catFR2	0	R1028M
1650.172	3.452	1053364	PROB	3.419	n/a	n/a	n/a	-999	0	13	[6, 5, 4]	15	0	1	0	n/a	n/a	0.0	0	0	0	catFR2	0	R1028M
1653.624	2.084	1055090	PROB	2.063	n/a	n/a	n/a	-999	0	13	[7, 4, 3]	14	0	1	0	n/a	n/a	0.0	0	0	0	catFR2	0	R1028M
1655.708	3.699	1056132	PROB	3.674	n/a	n/a	n/a	-999	0	13	[3, 5, 4]	12	0	1	0	n/a	n/a	0.0	0	0	0	catFR2	0	R1028M
1659.407	2.968	1057981	PROB	2.935	n/a	n/a	n/a	-999	0	13	[7, 2, 2]	11	0	1	0	n/a	n/a	0.0	0	0	0	catFR2	0	R1028M
1662.375	2.118	1059465	PROB	2.088	n/a	n/a	n/a	-999	0	13	[2, 4, 6]	12	0	1	0	n/a	n/a	0.0	0	0	0	catFR2	0	R1028M
1664.493	3.799	1060524	PROB	3.769	n/a	n/a	n/a	-999	0	13	[2, 1, 5]	8	0	1	0	n/a	n/a	0.0	0	0	0	catFR2	0	R1028M
1668.292	5.794	1062423	PROB	5.794	n/a	n/a	n/a	-999	0	13	[7, 6, 2]	13	0	1	0	n/a	n/a	0.0	0	0	0	catFR2	0	R1028M
1674.086	0.008	1065320	STOP	n/a	n/a	n/a	n/a	-999	0	13	[-999, -999, -999]	n/a	0	1	0	n/a	n/a	0.0	0	0	0	catFR2	0	R1028M
1674.094	1.117	1065324	DISTRACT_END	n/a	n/a	n/a	n/a	-999	0	13	[0, 0, 0]	n/a	0	1	0	n/a	n/a	0.0	0	0	0	catFR2	0	R1028M
1675.211	2.346	1065882	REC_START	n/a	n/a	n/a	n/a	-999	0	13	[0, 0, 0]	n/a	0	1	0	n/a	n/a	0.0	0	0	0	catFR2	0	R1028M
1677.557	1.242	1067055	REC_WORD	2.346	n/a	TELEVISION	Electronics	1	1	13	[0, 0, 0]	n/a	0	1	0	n/a	n/a	0.0	0	0	0	catFR2	0	R1028M
1678.799	1.437	1067676	REC_WORD	3.588	n/a	COMPUTER	Electronics	9	1	13	[0, 0, 0]	n/a	0	1	0	n/a	n/a	0.0	0	0	0	catFR2	0	R1028M
1680.236	1.644	1068394	REC_WORD	5.025	n/a	HEADPHONES	Electronics	2	1	13	[0, 0, 0]	n/a	0	1	0	n/a	n/a	0.0	0	0	0	catFR2	0	R1028M
1681.88	1.658	1069216	REC_WORD	6.669	n/a	JELLO	Desserts	8	1	13	[0, 0, 0]	n/a	0	1	0	n/a	n/a	0.0	0	0	0	catFR2	0	R1028M
1683.538	1.797	1070045	REC_WORD	8.327	n/a	PASTRY	Desserts	7	1	13	[0, 0, 0]	n/a	0	1	0	n/a	n/a	0.0	0	0	0	catFR2	0	R1028M
1685.335	1.2	1070944	REC_WORD	10.124	n/a	FUDGE	Desserts	3	1	13	[0, 0, 0]	n/a	0	1	0	n/a	n/a	0.0	0	0	0	catFR2	0	R1028M
1686.535	1.306	1071544	REC_WORD	11.324	n/a	COOKIE	Desserts	4	1	13	[0, 0, 0]	n/a	0	1	0	n/a	n/a	0.0	0	0	0	catFR2	0	R1028M
1687.841	1.373	1072197	REC_WORD	12.63	n/a	COMPUTER	Electronics	9	1	13	[0, 0, 0]	n/a	0	1	0	n/a	n/a	0.0	0	0	0	catFR2	0	R1028M
1689.214	1.14	1072883	REC_WORD	14.003	n/a	CALCULATOR	Electronics	10	1	13	[0, 0, 0]	n/a	0	1	0	n/a	n/a	0.0	0	0	0	catFR2	0	R1028M
1690.354	1.551	1073453	REC_WORD	15.143	n/a	MOUNTAIN	Landscapes	6	1	13	[0, 0, 0]	n/a	0	1	0	n/a	n/a	0.0	0	0	0	catFR2	0	R1028M
1691.905	0.616	1074228	REC_WORD	16.694	n/a	WOODS	Landscapes	5	1	13	[0, 0, 0]	n/a	0	1	0	n/a	n/a	0.0	0	0	0	catFR2	0	R1028M
1692.521	2.443	1074536	REC_WORD	17.31	n/a	HILLS	Landscapes	12	1	13	[0, 0, 0]	n/a	0	1	0	n/a	n/a	0.0	0	0	0	catFR2	0	R1028M
1694.964	10.257	1075758	REC_WORD	19.753	n/a	BEACH	Landscapes	11	1	13	[0, 0, 0]	n/a	0	1	0	n/a	n/a	0.0	0	0	0	catFR2	0	R1028M
1705.221	23.301	1080886	REC_END	n/a	n/a	n/a	n/a	-999	0	13	[0, 0, 0]	n/a	0	1	0	n/a	n/a	0.0	0	0	0	catFR2	0	R1028M
1728.522	0.0	1092535	TRIAL	n/a	n/a	n/a	n/a	-999	0	14	[0, 0, 0]	n/a	0	1	0	n/a	n/a	0.0	0	0	0	catFR2	0	R1028M
1728.522	10.0	1092535	COUNTDOWN_START	n/a	n/a	n/a	n/a	-999	0	14	[0, 0, 0]	n/a	0	1	0	n/a	n/a	0.0	0	0	0	catFR2	0	R1028M
1738.95	0.006	1097748	COUNTDOWN_END	n/a	n/a	n/a	n/a	-999	0	14	[0, 0, 0]	n/a	0	1	0	n/a	n/a	0.0	0	0	0	catFR2	0	R1028M
1738.956	1.6	1097751	ORIENT	n/a	n/a	n/a	n/a	-999	0	14	[0, 0, 0]	n/a	0	1	0	n/a	n/a	0.0	0	0	0	catFR2	0	R1028M
1742.808	1.6	1099677	WORD	n/a	wordpools/wordpool_categorized_EN.txt	PLIERS	Tools	1	1	14	[0, 0, 0]	n/a	0	1	0	n/a	n/a	0.0	0	0	0	catFR2	0	R1028M
1745.391	1.6	1100969	WORD	n/a	wordpools/wordpool_categorized_EN.txt	RATCHET	Tools	2	0	14	[0, 0, 0]	n/a	0	1	0	n/a	n/a	0.0	0	0	0	catFR2	0	R1028M
1747.617	4.6	1102081	STIM_ON	n/a	n/a	n/a	n/a	-999	0	14	[0, 0, 0]	n/a	1	1	4600	RTG1	RTG10	1500.0	50	230	300	catFR2	0	R1028M
1747.825	1.6	1102185	WORD	n/a	wordpools/wordpool_categorized_EN.txt	WALNUT	Trees	3	1	14	[0, 0, 0]	n/a	1	1	4600	RTG1	RTG10	1500.0	50	230	300	catFR2	0	R1028M
1750.275	1.6	1103410	WORD	n/a	wordpools/wordpool_categorized_EN.txt	CEDAR	Trees	4	1	14	[0, 0, 0]	n/a	1	1	4600	RTG1	RTG10	1500.0	50	230	300	catFR2	0	R1028M
1752.71	1.6	1104628	WORD	n/a	wordpools/wordpool_categorized_EN.txt	LAMB	FarmAnimals	5	1	14	[0, 0, 0]	n/a	0	1	0	n/a	n/a	0.0	0	0	0	catFR2	0	R1028M
1755.293	1.6	1105919	WORD	n/a	wordpools/wordpool_categorized_EN.txt	HORSE	FarmAnimals	6	0	14	[0, 0, 0]	n/a	0	1	0	n/a	n/a	0.0	0	0	0	catFR2	0	R1028M
1757.511	4.6	1107028	STIM_ON	n/a	n/a	n/a	n/a	-999	0	14	[0, 0, 0]	n/a	1	1	4600	RTG1	RTG10	1500.0	50	230	300	catFR2	0	R1028M
1757.727	1.6	1107136	WORD	n/a	wordpools/wordpool_categorized_EN.txt	WILLOW	Trees	7	1	14	[0, 0, 0]	n/a	1	1	4600	RTG1	RTG10	1500.0	50	230	300	catFR2	0	R1028M
1760.293	1.6	1108419	WORD	n/a	wordpools/wordpool_categorized_EN.txt	PINE	Trees	8	1	14	[0, 0, 0]	n/a	1	1	4600	RTG1	RTG10	1500.0	50	230	300	catFR2	0	R1028M
1762.878	1.6	1109711	WORD	n/a	wordpools/wordpool_categorized_EN.txt	SCREWDRIVER	Tools	9	1	14	[0, 0, 0]	n/a	0	1	0	n/a	n/a	0.0	0	0	0	catFR2	0	R1028M
1765.395	1.6	1110970	WORD	n/a	wordpools/wordpool_categorized_EN.txt	WRENCH	Tools	10	1	14	[0, 0, 0]	n/a	0	1	0	n/a	n/a	0.0	0	0	0	catFR2	0	R1028M
1767.778	4.6	1112161	STIM_ON	n/a	n/a	n/a	n/a	-999	0	14	[0, 0, 0]	n/a	1	1	4600	RTG1	RTG10	1500.0	50	230	300	catFR2	0	R1028M
1767.995	1.6	1112269	WORD	n/a	wordpools/wordpool_categorized_EN.txt	HEN	FarmAnimals	11	1	14	[0, 0, 0]	n/a	1	1	4600	RTG1	RTG10	1500.0	50	230	300	catFR2	0	R1028M
1770.446	1.6	1113495	WORD	n/a	wordpools/wordpool_categorized_EN.txt	CHICKEN	FarmAnimals	12	1	14	[0, 0, 0]	n/a	1	1	4600	RTG1	RTG10	1500.0	50	230	300	catFR2	0	R1028M
1772.062	0.002	1114303	DISTRACT_START	n/a	n/a	n/a	n/a	-999	0	14	[0, 0, 0]	n/a	0	1	0	n/a	n/a	0.0	0	0	0	catFR2	0	R1028M
1772.064	0.015	1114304	START	n/a	n/a	n/a	n/a	-999	0	14	[-999, -999, -999]	n/a	0	1	0	n/a	n/a	0.0	0	0	0	catFR2	0	R1028M
1772.079	4.101	1114311	PROB	4.071	n/a	n/a	n/a	-999	0	14	[6, 5, 3]	14	0	1	0	n/a	n/a	0.0	0	0	0	catFR2	0	R1028M
1776.18	2.784	1116361	PROB	2.762	n/a	n/a	n/a	-999	0	14	[2, 6, 6]	14	0	1	0	n/a	n/a	0.0	0	0	0	catFR2	0	R1028M
1778.964	2.551	1117753	PROB	2.523	n/a	n/a	n/a	-999	0	14	[2, 8, 8]	18	0	1	0	n/a	n/a	0.0	0	0	0	catFR2	0	R1028M
1781.515	3.034	1119029	PROB	3.012	n/a	n/a	n/a	-999	0	14	[1, 2, 5]	8	0	1	0	n/a	n/a	0.0	0	0	0	catFR2	0	R1028M
1784.549	2.967	1120546	PROB	2.946	n/a	n/a	n/a	-999	0	14	[1, 1, 5]	7	0	1	0	n/a	n/a	0.0	0	0	0	catFR2	0	R1028M
1787.516	4.101	1122029	PROB	4.067	n/a	n/a	n/a	-999	0	14	[8, 4, 2]	14	0	1	0	n/a	n/a	0.0	0	0	0	catFR2	0	R1028M
1791.617	2.677	1124079	PROB	2.677	n/a	n/a	n/a	-999	0	14	[3, 5, 2]	10	0	1	0	n/a	n/a	0.0	0	0	0	catFR2	0	R1028M
1794.294	0.006	1125418	STOP	n/a	n/a	n/a	n/a	-999	0	14	[-999, -999, -999]	n/a	0	1	0	n/a	n/a	0.0	0	0	0	catFR2	0	R1028M
1794.3	1.169	1125421	DISTRACT_END	n/a	n/a	n/a	n/a	-999	0	14	[0, 0, 0]	n/a	0	1	0	n/a	n/a	0.0	0	0	0	catFR2	0	R1028M
1795.469	1.419	1126005	REC_START	n/a	n/a	n/a	n/a	-999	0	14	[0, 0, 0]	n/a	0	1	0	n/a	n/a	0.0	0	0	0	catFR2	0	R1028M
1796.888	1.201	1126714	REC_WORD	1.419	n/a	PLIERS	Tools	1	1	14	[0, 0, 0]	n/a	0	1	0	n/a	n/a	0.0	0	0	0	catFR2	0	R1028M
1798.089	1.934	1127315	REC_WORD	2.62	n/a	SCREWDRIVER	Tools	9	1	14	[0, 0, 0]	n/a	0	1	0	n/a	n/a	0.0	0	0	0	catFR2	0	R1028M
1800.023	1.671	1128282	REC_WORD	4.554	n/a	WRENCH	Tools	10	1	14	[0, 0, 0]	n/a	0	1	0	n/a	n/a	0.0	0	0	0	catFR2	0	R1028M
1801.694	1.834	1129117	REC_WORD	6.225	n/a	WALNUT	Trees	3	1	14	[0, 0, 0]	n/a	0	1	0	n/a	n/a	0.0	0	0	0	catFR2	0	R1028M
1803.528	1.772	1130034	REC_WORD	8.059	n/a	CEDAR	Trees	4	1	14	[0, 0, 0]	n/a	0	1	0	n/a	n/a	0.0	0	0	0	catFR2	0	R1028M
1805.3	3.187	1130920	REC_WORD	9.831	n/a	PINE	Trees	8	1	14	[0, 0, 0]	n/a	0	1	0	n/a	n/a	0.0	0	0	0	catFR2	0	R1028M
1808.487	0.782	1132513	REC_WORD	13.018	n/a	LAMB	FarmAnimals	5	1	14	[0, 0, 0]	n/a	0	1	0	n/a	n/a	0.0	0	0	0	catFR2	0	R1028M
1809.269	0.889	1132904	REC_WORD	13.8	n/a	CHICKEN	FarmAnimals	12	1	14	[0, 0, 0]	n/a	0	1	0	n/a	n/a	0.0	0	0	0	catFR2	0	R1028M
1810.158	7.367	1133349	REC_WORD	14.689	n/a	HEN	FarmAnimals	11	1	14	[0, 0, 0]	n/a	0	1	0	n/a	n/a	0.0	0	0	0	catFR2	0	R1028M
1817.525	7.955	1137032	REC_WORD	22.056	n/a	WILLOW	Trees	7	1	14	[0, 0, 0]	n/a	0	1	0	n/a	n/a	0.0	0	0	0	catFR2	0	R1028M
1825.48	44.969	1141009	REC_END	n/a	n/a	n/a	n/a	-999	0	14	[0, 0, 0]	n/a	0	1	0	n/a	n/a	0.0	0	0	0	catFR2	0	R1028M
1870.449	0.0	1163491	TRIAL	n/a	n/a	n/a	n/a	-999	0	15	[0, 0, 0]	n/a	0	1	0	n/a	n/a	0.0	0	0	0	catFR2	0	R1028M
1870.449	10.0	1163491	COUNTDOWN_START	n/a	n/a	n/a	n/a	-999	0	15	[0, 0, 0]	n/a	0	1	0	n/a	n/a	0.0	0	0	0	catFR2	0	R1028M
1880.877	0.007	1168705	COUNTDOWN_END	n/a	n/a	n/a	n/a	-999	0	15	[0, 0, 0]	n/a	0	1	0	n/a	n/a	0.0	0	0	0	catFR2	0	R1028M
1880.884	1.6	1168708	ORIENT	n/a	n/a	n/a	n/a	-999	0	15	[0, 0, 0]	n/a	0	1	0	n/a	n/a	0.0	0	0	0	catFR2	0	R1028M
1884.618	1.6	1170575	WORD	n/a	wordpools/wordpool_categorized_EN.txt	SPARROW	Birds	1	1	15	[0, 0, 0]	n/a	0	1	0	n/a	n/a	0.0	0	0	0	catFR2	0	R1028M
1887.085	1.6	1171808	WORD	n/a	wordpools/wordpool_categorized_EN.txt	HAWK	Birds	2	1	15	[0, 0, 0]	n/a	0	1	0	n/a	n/a	0.0	0	0	0	catFR2	0	R1028M
1889.343	4.6	1172937	STIM_ON	n/a	n/a	n/a	n/a	-999	0	15	[0, 0, 0]	n/a	1	1	4600	RTG1	RTG10	1500.0	50	230	300	catFR2	0	R1028M
1889.553	1.6	1173042	WORD	n/a	wordpools/wordpool_categorized_EN.txt	TURTLE	OceanAnimals	3	1	15	[0, 0, 0]	n/a	1	1	4600	RTG1	RTG10	1500.0	50	230	300	catFR2	0	R1028M
1892.002	1.6	1174266	WORD	n/a	wordpools/wordpool_categorized_EN.txt	FISH	OceanAnimals	4	1	15	[0, 0, 0]	n/a	1	1	4600	RTG1	RTG10	1500.0	50	230	300	catFR2	0	R1028M
1894.504	1.6	1175517	WORD	n/a	wordpools/wordpool_categorized_EN.txt	MAPLE	Trees	5	0	15	[0, 0, 0]	n/a	0	1	0	n/a	n/a	0.0	0	0	0	catFR2	0	R1028M
1896.888	1.6	1176709	WORD	n/a	wordpools/wordpool_categorized_EN.txt	HICKORY	Trees	6	1	15	[0, 0, 0]	n/a	0	1	0	n/a	n/a	0.0	0	0	0	catFR2	0	R1028M
1899.157	4.6	1177844	STIM_ON	n/a	n/a	n/a	n/a	-999	0	15	[0, 0, 0]	n/a	1	1	4600	RTG1	RTG10	1500.0	50	230	300	catFR2	0	R1028M
1899.37	1.6	1177950	WORD	n/a	wordpools/wordpool_categorized_EN.txt	ROBIN	Birds	7	0	15	[0, 0, 0]	n/a	1	1	4600	RTG1	RTG10	1500.0	50	230	300	catFR2	0	R1028M
1901.938	1.6	1179234	WORD	n/a	wordpools/wordpool_categorized_EN.txt	BLUEBIRD	Birds	8	1	15	[0, 0, 0]	n/a	1	1	4600	RTG1	RTG10	1500.0	50	230	300	catFR2	0	R1028M
1904.522	1.6	1180526	WORD	n/a	wordpools/wordpool_categorized_EN.txt	ELM	Trees	9	0	15	[0, 0, 0]	n/a	0	1	0	n/a	n/a	0.0	0	0	0	catFR2	0	R1028M
1906.955	1.6	1181742	WORD	n/a	wordpools/wordpool_categorized_EN.txt	BIRCH	Trees	10	0	15	[0, 0, 0]	n/a	0	1	0	n/a	n/a	0.0	0	0	0	catFR2	0	R1028M
1909.131	4.6	1182830	STIM_ON	n/a	n/a	n/a	n/a	-999	0	15	[0, 0, 0]	n/a	1	1	4600	RTG1	RTG10	1500.0	50	230	300	catFR2	0	R1028M
1909.339	1.6	1182934	WORD	n/a	wordpools/wordpool_categorized_EN.txt	WHALE	OceanAnimals	11	1	15	[0, 0, 0]	n/a	1	1	4600	RTG1	RTG10	1500.0	50	230	300	catFR2	0	R1028M
1911.84	1.6	1184184	WORD	n/a	wordpools/wordpool_categorized_EN.txt	JELLYFISH	OceanAnimals	12	1	15	[0, 0, 0]	n/a	1	1	4600	RTG1	RTG10	1500.0	50	230	300	catFR2	0	R1028M
1913.457	0.001	1184993	DISTRACT_START	n/a	n/a	n/a	n/a	-999	0	15	[0, 0, 0]	n/a	0	1	0	n/a	n/a	0.0	0	0	0	catFR2	0	R1028M
1913.458	0.016	1184993	START	n/a	n/a	n/a	n/a	-999	0	15	[-999, -999, -999]	n/a	0	1	0	n/a	n/a	0.0	0	0	0	catFR2	0	R1028M
1913.474	3.001	1185001	PROB	2.973	n/a	n/a	n/a	-999	0	15	[4, 1, 1]	6	0	1	0	n/a	n/a	0.0	0	0	0	catFR2	0	R1028M
1916.475	3.267	1186502	PROB	3.236	n/a	n/a	n/a	-999	0	15	[3, 4, 9]	16	0	1	0	n/a	n/a	0.0	0	0	0	catFR2	0	R1028M
1919.742	2.05	1188135	PROB	2.017	n/a	n/a	n/a	-999	0	15	[7, 7, 7]	21	0	1	0	n/a	n/a	0.0	0	0	0	catFR2	0	R1028M
1921.792	3.684	1189160	PROB	3.655	n/a	n/a	n/a	-999	0	15	[1, 3, 5]	9	0	1	0	n/a	n/a	0.0	0	0	0	catFR2	0	R1028M
1925.476	3.168	1191002	PROB	3.147	n/a	n/a	n/a	-999	0	15	[7, 2, 7]	16	0	1	0	n/a	n/a	0.0	0	0	0	catFR2	0	R1028M
1928.644	3.666	1192586	PROB	3.642	n/a	n/a	n/a	-999	0	15	[2, 4, 7]	13	0	1	0	n/a	n/a	0.0	0	0	0	catFR2	0	R1028M
1932.31	2.353	1194418	PROB	2.353	n/a	n/a	n/a	-999	0	15	[8, 2, 5]	15	0	1	0	n/a	n/a	0.0	0	0	0	catFR2	0	R1028M
1934.663	0.015	1195595	STOP	n/a	n/a	n/a	n/a	-999	0	15	[-999, -999, -999]	n/a	0	1	0	n/a	n/a	0.0	0	0	0	catFR2	0	R1028M
1934.678	1.151	1195602	DISTRACT_END	n/a	n/a	n/a	n/a	-999	0	15	[0, 0, 0]	n/a	0	1	0	n/a	n/a	0.0	0	0	0	catFR2	0	R1028M
1935.829	2.682	1196178	REC_START	n/a	n/a	n/a	n/a	-999	0	15	[0, 0, 0]	n/a	0	1	0	n/a	n/a	0.0	0	0	0	catFR2	0	R1028M
1938.511	1.056	1197519	REC_WORD	2.682	n/a	FISH	OceanAnimals	4	1	15	[0, 0, 0]	n/a	0	1	0	n/a	n/a	0.0	0	0	0	catFR2	0	R1028M
1939.567	1.041	1198047	REC_WORD	3.738	n/a	TURTLE	OceanAnimals	3	1	15	[0, 0, 0]	n/a	0	1	0	n/a	n/a	0.0	0	0	0	catFR2	0	R1028M
1940.608	0.823	1198567	REC_WORD	4.779	n/a	HAWK	Birds	2	1	15	[0, 0, 0]	n/a	0	1	0	n/a	n/a	0.0	0	0	0	catFR2	0	R1028M
1941.431	1.268	1198978	REC_WORD	5.602	n/a	SPARROW	Birds	1	1	15	[0, 0, 0]	n/a	0	1	0	n/a	n/a	0.0	0	0	0	catFR2	0	R1028M
1942.699	1.421	1199612	REC_WORD	6.87	n/a	JELLYFISH	OceanAnimals	12	1	15	[0, 0, 0]	n/a	0	1	0	n/a	n/a	0.0	0	0	0	catFR2	0	R1028M
1944.12	4.213	1200323	REC_WORD	8.291	n/a	WHALE	OceanAnimals	11	1	15	[0, 0, 0]	n/a	0	1	0	n/a	n/a	0.0	0	0	0	catFR2	0	R1028M
1948.333	6.579	1202429	REC_WORD	12.504	n/a	BLUEBIRD	Birds	8	1	15	[0, 0, 0]	n/a	0	1	0	n/a	n/a	0.0	0	0	0	catFR2	0	R1028M
1954.912	2.553	1205718	REC_WORD	19.083	n/a	OAK	n/a	-999	0	15	[0, 0, 0]	n/a	0	1	0	n/a	n/a	0.0	0	0	0	catFR2	0	R1028M
1957.465	8.375	1206995	REC_WORD	21.636	n/a	HICKORY	Trees	6	1	15	[0, 0, 0]	n/a	0	1	0	n/a	n/a	0.0	0	0	0	catFR2	0	R1028M
1965.84	5.461	1211182	REC_END	n/a	n/a	n/a	n/a	-999	0	15	[0, 0, 0]	n/a	0	1	0	n/a	n/a	0.0	0	0	0	catFR2	0	R1028M
1971.301	0.0	1213912	TRIAL	n/a	n/a	n/a	n/a	-999	0	16	[0, 0, 0]	n/a	0	1	0	n/a	n/a	0.0	0	0	0	catFR2	0	R1028M
1971.301	10.0	1213912	COUNTDOWN_START	n/a	n/a	n/a	n/a	-999	0	16	[0, 0, 0]	n/a	0	1	0	n/a	n/a	0.0	0	0	0	catFR2	0	R1028M
1981.729	0.008	1219125	COUNTDOWN_END	n/a	n/a	n/a	n/a	-999	0	16	[0, 0, 0]	n/a	0	1	0	n/a	n/a	0.0	0	0	0	catFR2	0	R1028M
1981.737	1.6	1219129	ORIENT	n/a	n/a	n/a	n/a	-999	0	16	[0, 0, 0]	n/a	0	1	0	n/a	n/a	0.0	0	0	0	catFR2	0	R1028M
1985.158	4.6	1220840	STIM_ON	n/a	n/a	n/a	n/a	-999	0	16	[0, 0, 0]	n/a	1	1	4600	RTG1	RTG10	1500.0	50	230	300	catFR2	0	R1028M
1985.37	1.6	1220946	WORD	n/a	wordpools/wordpool_categorized_EN.txt	CARNATION	Flowers	1	1	16	[0, 0, 0]	n/a	1	1	4600	RTG1	RTG10	1500.0	50	230	300	catFR2	0	R1028M
1987.921	1.6	1222221	WORD	n/a	wordpools/wordpool_categorized_EN.txt	LILAC	Flowers	2	1	16	[0, 0, 0]	n/a	1	1	4600	RTG1	RTG10	1500.0	50	230	300	catFR2	0	R1028M
1990.421	1.6	1223471	WORD	n/a	wordpools/wordpool_categorized_EN.txt	GLUE	OfficeSupplies	3	1	16	[0, 0, 0]	n/a	0	1	0	n/a	n/a	0.0	0	0	0	catFR2	0	R1028M
1992.806	1.6	1224663	WORD	n/a	wordpools/wordpool_categorized_EN.txt	FOLDER	OfficeSupplies	4	1	16	[0, 0, 0]	n/a	0	1	0	n/a	n/a	0.0	0	0	0	catFR2	0	R1028M
1995.073	4.6	1225797	STIM_ON	n/a	n/a	n/a	n/a	-999	0	16	[0, 0, 0]	n/a	1	1	4600	RTG1	RTG10	1500.0	50	230	300	catFR2	0	R1028M
1995.289	1.6	1225905	WORD	n/a	wordpools/wordpool_categorized_EN.txt	STRAINER	KitchenTools	5	1	16	[0, 0, 0]	n/a	1	1	4600	RTG1	RTG10	1500.0	50	230	300	catFR2	0	R1028M
1997.724	1.6	1227122	WORD	n/a	wordpools/wordpool_categorized_EN.txt	WHISK	KitchenTools	6	1	16	[0, 0, 0]	n/a	1	1	4600	RTG1	RTG10	1500.0	50	230	300	catFR2	0	R1028M
2000.323	1.6	1228421	WORD	n/a	wordpools/wordpool_categorized_EN.txt	LILY	Flowers	7	1	16	[0, 0, 0]	n/a	0	1	0	n/a	n/a	0.0	0	0	0	catFR2	0	R1028M
2002.758	1.6	1229639	WORD	n/a	wordpools/wordpool_categorized_EN.txt	VIOLET	Flowers	8	1	16	[0, 0, 0]	n/a	0	1	0	n/a	n/a	0.0	0	0	0	catFR2	0	R1028M
2005.064	4.6	1230792	STIM_ON	n/a	n/a	n/a	n/a	-999	0	16	[0, 0, 0]	n/a	1	1	4600	RTG1	RTG10	1500.0	50	230	300	catFR2	0	R1028M
2005.274	1.6	1230897	WORD	n/a	wordpools/wordpool_categorized_EN.txt	COLANDER	KitchenTools	9	1	16	[0, 0, 0]	n/a	1	1	4600	RTG1	RTG10	1500.0	50	230	300	catFR2	0	R1028M
2007.776	1.6	1232148	WORD	n/a	wordpools/wordpool_categorized_EN.txt	CORKSCREW	KitchenTools	10	1	16	[0, 0, 0]	n/a	1	1	4600	RTG1	RTG10	1500.0	50	230	300	catFR2	0	R1028M
2010.208	1.6	1233363	WORD	n/a	wordpools/wordpool_categorized_EN.txt	RULER	OfficeSupplies	11	1	16	[0, 0, 0]	n/a	0	1	0	n/a	n/a	0.0	0	0	0	catFR2	0	R1028M
2012.61	1.6	1234564	WORD	n/a	wordpools/wordpool_categorized_EN.txt	ERASER	OfficeSupplies	12	1	16	[0, 0, 0]	n/a	0	1	0	n/a	n/a	0.0	0	0	0	catFR2	0	R1028M
2014.226	0.001	1235372	DISTRACT_START	n/a	n/a	n/a	n/a	-999	0	16	[0, 0, 0]	n/a	0	1	0	n/a	n/a	0.0	0	0	0	catFR2	0	R1028M
2014.227	0.016	1235373	START	n/a	n/a	n/a	n/a	-999	0	16	[-999, -999, -999]	n/a	0	1	0	n/a	n/a	0.0	0	0	0	catFR2	0	R1028M
2014.243	2.284	1235381	PROB	2.252	n/a	n/a	n/a	-999	0	16	[6, 4, 1]	11	0	1	0	n/a	n/a	0.0	0	0	0	catFR2	0	R1028M
2016.527	9.085	1236523	PROB	9.064	n/a	n/a	n/a	-999	0	16	[6, 1, 6]	13	0	1	0	n/a	n/a	0.0	0	0	0	catFR2	0	R1028M
2025.612	3.234	1241065	PROB	3.203	n/a	n/a	n/a	-999	0	16	[7, 5, 7]	19	0	1	0	n/a	n/a	0.0	0	0	0	catFR2	0	R1028M
2028.846	3.651	1242681	PROB	3.617	n/a	n/a	n/a	-999	0	16	[9, 5, 3]	17	0	1	0	n/a	n/a	0.0	0	0	0	catFR2	0	R1028M
2032.497	2.974	1244507	PROB	2.974	n/a	n/a	n/a	-999	0	16	[2, 7, 7]	16	0	1	0	n/a	n/a	0.0	0	0	0	catFR2	0	R1028M
2035.471	0.01	1245994	STOP	n/a	n/a	n/a	n/a	-999	0	16	[-999, -999, -999]	n/a	0	1	0	n/a	n/a	0.0	0	0	0	catFR2	0	R1028M
2035.481	1.134	1245999	DISTRACT_END	n/a	n/a	n/a	n/a	-999	0	16	[0, 0, 0]	n/a	0	1	0	n/a	n/a	0.0	0	0	0	catFR2	0	R1028M
2036.615	3.757	1246566	REC_START	n/a	n/a	n/a	n/a	-999	0	16	[0, 0, 0]	n/a	0	1	0	n/a	n/a	0.0	0	0	0	catFR2	0	R1028M
2040.372	1.367	1248444	REC_WORD	3.757	n/a	MIX	n/a	-999	0	16	[0, 0, 0]	n/a	0	1	0	n/a	n/a	0.0	0	0	0	catFR2	0	R1028M
2041.739	2.16	1249127	REC_WORD	5.124	n/a	WHISK	KitchenTools	6	1	16	[0, 0, 0]	n/a	0	1	0	n/a	n/a	0.0	0	0	0	catFR2	0	R1028M
2043.899	1.427	1250207	REC_WORD	7.284	n/a	STRAINER	KitchenTools	5	1	16	[0, 0, 0]	n/a	0	1	0	n/a	n/a	0.0	0	0	0	catFR2	0	R1028M
2045.326	1.335	1250921	REC_WORD	8.711	n/a	FOLDER	OfficeSupplies	4	1	16	[0, 0, 0]	n/a	0	1	0	n/a	n/a	0.0	0	0	0	catFR2	0	R1028M
2046.661	1.008	1251588	REC_WORD	10.046	n/a	GLUE	OfficeSupplies	3	1	16	[0, 0, 0]	n/a	0	1	0	n/a	n/a	0.0	0	0	0	catFR2	0	R1028M
2047.669	1.54	1252092	REC_WORD	11.054	n/a	CARNATION	Flowers	1	1	16	[0, 0, 0]	n/a	0	1	0	n/a	n/a	0.0	0	0	0	catFR2	0	R1028M
2049.209	1.079	1252862	REC_WORD	12.594	n/a	LILY	Flowers	7	1	16	[0, 0, 0]	n/a	0	1	0	n/a	n/a	0.0	0	0	0	catFR2	0	R1028M
2050.288	1.341	1253401	REC_WORD	13.673	n/a	LILAC	Flowers	2	1	16	[0, 0, 0]	n/a	0	1	0	n/a	n/a	0.0	0	0	0	catFR2	0	R1028M
2051.629	1.997	1254072	REC_WORD	15.014	n/a	VIOLET	Flowers	8	1	16	[0, 0, 0]	n/a	0	1	0	n/a	n/a	0.0	0	0	0	catFR2	0	R1028M
2053.626	3.011	1255070	REC_WORD	17.011	n/a	COLANDER	KitchenTools	9	1	16	[0, 0, 0]	n/a	0	1	0	n/a	n/a	0.0	0	0	0	catFR2	0	R1028M
2056.637	1.085	1256575	REC_WORD	20.022	n/a	RULER	OfficeSupplies	11	1	16	[0, 0, 0]	n/a	0	1	0	n/a	n/a	0.0	0	0	0	catFR2	0	R1028M
2057.722	3.18	1257118	REC_WORD	21.107	n/a	ERASER	OfficeSupplies	12	1	16	[0, 0, 0]	n/a	0	1	0	n/a	n/a	0.0	0	0	0	catFR2	0	R1028M
2060.902	5.724	1258708	REC_WORD	24.287	n/a	CORKSCREW	KitchenTools	10	1	16	[0, 0, 0]	n/a	0	1	0	n/a	n/a	0.0	0	0	0	catFR2	0	R1028M
2066.626	27.233	1261569	REC_END	n/a	n/a	n/a	n/a	-999	0	16	[0, 0, 0]	n/a	0	1	0	n/a	n/a	0.0	0	0	0	catFR2	0	R1028M
2093.859	0.0	1275185	TRIAL	n/a	n/a	n/a	n/a	-999	0	17	[0, 0, 0]	n/a	0	1	0	n/a	n/a	0.0	0	0	0	catFR2	0	R1028M
2093.859	10.0	1275185	COUNTDOWN_START	n/a	n/a	n/a	n/a	-999	0	17	[0, 0, 0]	n/a	0	1	0	n/a	n/a	0.0	0	0	0	catFR2	0	R1028M
2104.287	0.006	1280398	COUNTDOWN_END	n/a	n/a	n/a	n/a	-999	0	17	[0, 0, 0]	n/a	0	1	0	n/a	n/a	0.0	0	0	0	catFR2	0	R1028M
2104.293	1.6	1280401	ORIENT	n/a	n/a	n/a	n/a	-999	0	17	[0, 0, 0]	n/a	0	1	0	n/a	n/a	0.0	0	0	0	catFR2	0	R1028M
2107.994	1.6	1282251	WORD	n/a	wordpools/wordpool_categorized_EN.txt	WATER	Beverages	1	1	17	[0, 0, 0]	n/a	0	1	0	n/a	n/a	0.0	0	0	0	catFR2	0	R1028M
2110.462	1.6	1283485	WORD	n/a	wordpools/wordpool_categorized_EN.txt	COLA	Beverages	2	1	17	[0, 0, 0]	n/a	0	1	0	n/a	n/a	0.0	0	0	0	catFR2	0	R1028M
2112.656	4.6	1284582	STIM_ON	n/a	n/a	n/a	n/a	-999	0	17	[0, 0, 0]	n/a	1	1	4600	RTG1	RTG10	1500.0	50	230	300	catFR2	0	R1028M
2112.863	1.6	1284686	WORD	n/a	wordpools/wordpool_categorized_EN.txt	KNEE	BodyParts	3	1	17	[0, 0, 0]	n/a	1	1	4600	RTG1	RTG10	1500.0	50	230	300	catFR2	0	R1028M
2115.362	1.6	1285935	WORD	n/a	wordpools/wordpool_categorized_EN.txt	HAND	BodyParts	4	1	17	[0, 0, 0]	n/a	1	1	4600	RTG1	RTG10	1500.0	50	230	300	catFR2	0	R1028M
2117.864	1.6	1287186	WORD	n/a	wordpools/wordpool_categorized_EN.txt	MOTORCYCLE	Vehicles	5	1	17	[0, 0, 0]	n/a	0	1	0	n/a	n/a	0.0	0	0	0	catFR2	0	R1028M
2120.481	1.6	1288494	WORD	n/a	wordpools/wordpool_categorized_EN.txt	TRAIN	Vehicles	6	1	17	[0, 0, 0]	n/a	0	1	0	n/a	n/a	0.0	0	0	0	catFR2	0	R1028M
2122.707	4.6	1289607	STIM_ON	n/a	n/a	n/a	n/a	-999	0	17	[0, 0, 0]	n/a	1	1	4600	RTG1	RTG10	1500.0	50	230	300	catFR2	0	R1028M
2122.913	1.6	1289710	WORD	n/a	wordpools/wordpool_categorized_EN.txt	HEAD	BodyParts	7	0	17	[0, 0, 0]	n/a	1	1	4600	RTG1	RTG10	1500.0	50	230	300	catFR2	0	R1028M
2125.347	1.6	1290927	WORD	n/a	wordpools/wordpool_categorized_EN.txt	FINGERS	BodyParts	8	1	17	[0, 0, 0]	n/a	1	1	4600	RTG1	RTG10	1500.0	50	230	300	catFR2	0	R1028M
2127.948	1.6	1292227	WORD	n/a	wordpools/wordpool_categorized_EN.txt	SODA	Beverages	9	0	17	[0, 0, 0]	n/a	0	1	0	n/a	n/a	0.0	0	0	0	catFR2	0	R1028M
2130.415	1.6	1293461	WORD	n/a	wordpools/wordpool_categorized_EN.txt	WINE	Beverages	10	1	17	[0, 0, 0]	n/a	0	1	0	n/a	n/a	0.0	0	0	0	catFR2	0	R1028M
2132.644	4.6	1294575	STIM_ON	n/a	n/a	n/a	n/a	-999	0	17	[0, 0, 0]	n/a	1	1	4600	RTG1	RTG10	1500.0	50	230	300	catFR2	0	R1028M
2132.85	1.6	1294678	WORD	n/a	wordpools/wordpool_categorized_EN.txt	BOAT	Vehicles	11	0	17	[0, 0, 0]	n/a	1	1	4600	RTG1	RTG10	1500.0	50	230	300	catFR2	0	R1028M
2135.416	1.6	1295961	WORD	n/a	wordpools/wordpool_categorized_EN.txt	BUS	Vehicles	12	1	17	[0, 0, 0]	n/a	1	1	4600	RTG1	RTG10	1500.0	50	230	300	catFR2	0	R1028M
2137.033	0.001	1296769	DISTRACT_START	n/a	n/a	n/a	n/a	-999	0	17	[0, 0, 0]	n/a	0	1	0	n/a	n/a	0.0	0	0	0	catFR2	0	R1028M
2137.034	0.016	1296770	START	n/a	n/a	n/a	n/a	-999	0	17	[-999, -999, -999]	n/a	0	1	0	n/a	n/a	0.0	0	0	0	catFR2	0	R1028M
2137.05	3.984	1296778	PROB	3.956	n/a	n/a	n/a	-999	0	17	[6, 5, 1]	12	0	1	0	n/a	n/a	0.0	0	0	0	catFR2	0	R1028M
2141.034	2.183	1298770	PROB	2.156	n/a	n/a	n/a	-999	0	17	[7, 1, 3]	11	0	1	0	n/a	n/a	0.0	0	0	0	catFR2	0	R1028M
2143.217	3.352	1299861	PROB	3.326	n/a	n/a	n/a	-999	0	17	[8, 6, 1]	15	0	1	0	n/a	n/a	0.0	0	0	0	catFR2	0	R1028M
2146.569	2.633	1301537	PROB	2.605	n/a	n/a	n/a	-999	0	17	[5, 5, 8]	18	0	1	0	n/a	n/a	0.0	0	0	0	catFR2	0	R1028M
2149.202	5.252	1302853	PROB	5.22	n/a	n/a	n/a	-999	0	17	[8, 8, 7]	23	0	1	0	n/a	n/a	0.0	0	0	0	catFR2	0	R1028M
2154.454	4.145	1305479	PROB	4.145	n/a	n/a	n/a	-999	0	17	[6, 8, 5]	19	0	1	0	n/a	n/a	0.0	0	0	0	catFR2	0	R1028M
2158.599	0.006	1307551	STOP	n/a	n/a	n/a	n/a	-999	0	17	[-999, -999, -999]	n/a	0	1	0	n/a	n/a	0.0	0	0	0	catFR2	0	R1028M
2158.605	1.117	1307554	DISTRACT_END	n/a	n/a	n/a	n/a	-999	0	17	[0, 0, 0]	n/a	0	1	0	n/a	n/a	0.0	0	0	0	catFR2	0	R1028M
2159.722	2.438	1308113	REC_START	n/a	n/a	n/a	n/a	-999	0	17	[0, 0, 0]	n/a	0	1	0	n/a	n/a	0.0	0	0	0	catFR2	0	R1028M
2162.16	0.966	1309332	REC_WORD	2.438	n/a	KNEE	BodyParts	3	1	17	[0, 0, 0]	n/a	0	1	0	n/a	n/a	0.0	0	0	0	catFR2	0	R1028M
2163.126	1.102	1309814	REC_WORD	3.404	n/a	HAND	BodyParts	4	1	17	[0, 0, 0]	n/a	0	1	0	n/a	n/a	0.0	0	0	0	catFR2	0	R1028M
2164.228	6.468	1310365	REC_WORD	4.506	n/a	FINGERS	BodyParts	8	1	17	[0, 0, 0]	n/a	0	1	0	n/a	n/a	0.0	0	0	0	catFR2	0	R1028M
2170.696	1.106	1313599	REC_WORD	10.974	n/a	WINE	Beverages	10	1	17	[0, 0, 0]	n/a	0	1	0	n/a	n/a	0.0	0	0	0	catFR2	0	R1028M
2171.802	3.54	1314152	REC_WORD	12.08	n/a	COLA	Beverages	2	1	17	[0, 0, 0]	n/a	0	1	0	n/a	n/a	0.0	0	0	0	catFR2	0	R1028M
2175.342	0.884	1315922	REC_WORD	15.62	n/a	WATER	Beverages	1	1	17	[0, 0, 0]	n/a	0	1	0	n/a	n/a	0.0	0	0	0	catFR2	0	R1028M
2176.226	0.753	1316364	REC_WORD	16.504	n/a	MOTORCYCLE	Vehicles	5	1	17	[0, 0, 0]	n/a	0	1	0	n/a	n/a	0.0	0	0	0	catFR2	0	R1028M
2176.979	0.618	1316740	REC_WORD	17.257	n/a	BUS	Vehicles	12	1	17	[0, 0, 0]	n/a	0	1	0	n/a	n/a	0.0	0	0	0	catFR2	0	R1028M
2177.597	12.139	1317049	REC_WORD	17.875	n/a	TRAIN	Vehicles	6	1	17	[0, 0, 0]	n/a	0	1	0	n/a	n/a	0.0	0	0	0	catFR2	0	R1028M
2189.736	215.966	1323118	REC_END	n/a	n/a	n/a	n/a	-999	0	17	[0, 0, 0]	n/a	0	1	0	n/a	n/a	0.0	0	0	0	catFR2	0	R1028M
2405.702	10.0	1431090	COUNTDOWN_START	n/a	n/a	n/a	n/a	-999	0	18	[0, 0, 0]	n/a	0	1	0	n/a	n/a	0.0	0	0	0	catFR2	0	R1028M
2405.703	10.427	1431090	TRIAL	n/a	n/a	n/a	n/a	-999	0	18	[0, 0, 0]	n/a	0	1	0	n/a	n/a	0.0	0	0	0	catFR2	0	R1028M
2416.13	0.007	1436303	COUNTDOWN_END	n/a	n/a	n/a	n/a	-999	0	18	[0, 0, 0]	n/a	0	1	0	n/a	n/a	0.0	0	0	0	catFR2	0	R1028M
2416.137	1.6	1436307	ORIENT	n/a	n/a	n/a	n/a	-999	0	18	[0, 0, 0]	n/a	0	1	0	n/a	n/a	0.0	0	0	0	catFR2	0	R1028M
2419.971	1.6	1438224	WORD	n/a	wordpools/wordpool_categorized_EN.txt	OVEN	Appliances	1	1	18	[0, 0, 0]	n/a	0	1	0	n/a	n/a	0.0	0	0	0	catFR2	0	R1028M
2422.371	1.6	1439424	WORD	n/a	wordpools/wordpool_categorized_EN.txt	IRON	Appliances	2	1	18	[0, 0, 0]	n/a	0	1	0	n/a	n/a	0.0	0	0	0	catFR2	0	R1028M
2424.735	4.6	1440605	STIM_ON	n/a	n/a	n/a	n/a	-999	0	18	[0, 0, 0]	n/a	1	1	4600	RTG1	RTG10	1500.0	50	230	300	catFR2	0	R1028M
2424.938	1.6	1440707	WORD	n/a	wordpools/wordpool_categorized_EN.txt	WALL	Building	3	1	18	[0, 0, 0]	n/a	1	1	4600	RTG1	RTG10	1500.0	50	230	300	catFR2	0	R1028M
2427.507	1.6	1441991	WORD	n/a	wordpools/wordpool_categorized_EN.txt	WINDOW	Building	4	1	18	[0, 0, 0]	n/a	1	1	4600	RTG1	RTG10	1500.0	50	230	300	catFR2	0	R1028M
2429.907	1.6	1443191	WORD	n/a	wordpools/wordpool_categorized_EN.txt	MOUSSE	Desserts	5	1	18	[0, 0, 0]	n/a	0	1	0	n/a	n/a	0.0	0	0	0	catFR2	0	R1028M
2432.373	1.6	1444424	WORD	n/a	wordpools/wordpool_categorized_EN.txt	PUDDING	Desserts	6	0	18	[0, 0, 0]	n/a	0	1	0	n/a	n/a	0.0	0	0	0	catFR2	0	R1028M
2434.779	4.6	1445627	STIM_ON	n/a	n/a	n/a	n/a	-999	0	18	[0, 0, 0]	n/a	1	1	4600	RTG1	RTG10	1500.0	50	230	300	catFR2	0	R1028M
2434.99	1.6	1445732	WORD	n/a	wordpools/wordpool_categorized_EN.txt	FOUNDATION	Building	7	1	18	[0, 0, 0]	n/a	1	1	4600	RTG1	RTG10	1500.0	50	230	300	catFR2	0	R1028M
2437.475	1.6	1446975	WORD	n/a	wordpools/wordpool_categorized_EN.txt	ROOM	Building	8	0	18	[0, 0, 0]	n/a	1	1	4600	RTG1	RTG10	1500.0	50	230	300	catFR2	0	R1028M
2439.941	1.6	1448208	WORD	n/a	wordpools/wordpool_categorized_EN.txt	FREEZER	Appliances	9	1	18	[0, 0, 0]	n/a	0	1	0	n/a	n/a	0.0	0	0	0	catFR2	0	R1028M
2442.392	1.6	1449433	WORD	n/a	wordpools/wordpool_categorized_EN.txt	STOVE	Appliances	10	1	18	[0, 0, 0]	n/a	0	1	0	n/a	n/a	0.0	0	0	0	catFR2	0	R1028M
2444.755	4.6	1450614	STIM_ON	n/a	n/a	n/a	n/a	-999	0	18	[0, 0, 0]	n/a	1	1	4600	RTG1	RTG10	1500.0	50	230	300	catFR2	0	R1028M
2444.959	1.6	1450716	WORD	n/a	wordpools/wordpool_categorized_EN.txt	CAKE	Desserts	11	1	18	[0, 0, 0]	n/a	1	1	4600	RTG1	RTG10	1500.0	50	230	300	catFR2	0	R1028M
2447.494	1.6	1451984	WORD	n/a	wordpools/wordpool_categorized_EN.txt	PIE	Desserts	12	1	18	[0, 0, 0]	n/a	1	1	4600	RTG1	RTG10	1500.0	50	230	300	catFR2	0	R1028M
2449.11	0.001	1452792	DISTRACT_START	n/a	n/a	n/a	n/a	-999	0	18	[0, 0, 0]	n/a	0	1	0	n/a	n/a	0.0	0	0	0	catFR2	0	R1028M
2449.111	0.015	1452792	START	n/a	n/a	n/a	n/a	-999	0	18	[-999, -999, -999]	n/a	0	1	0	n/a	n/a	0.0	0	0	0	catFR2	0	R1028M
2449.126	3.118	1452800	PROB	3.088	n/a	n/a	n/a	-999	0	18	[6, 6, 2]	14	0	1	0	n/a	n/a	0.0	0	0	0	catFR2	0	R1028M
2452.244	3.301	1454359	PROB	3.267	n/a	n/a	n/a	-999	0	18	[1, 6, 1]	8	0	1	0	n/a	n/a	0.0	0	0	0	catFR2	0	R1028M
2455.545	7.152	1456009	PROB	7.126	n/a	n/a	n/a	-999	0	18	[7, 8, 1]	16	0	1	0	n/a	n/a	0.0	0	0	0	catFR2	0	R1028M
2462.697	2.716	1459585	PROB	2.693	n/a	n/a	n/a	-999	0	18	[1, 9, 6]	16	0	1	0	n/a	n/a	0.0	0	0	0	catFR2	0	R1028M
2465.413	9.529	1460942	PROB	9.529	n/a	n/a	n/a	-999	0	18	[7, 9, 7]	23	0	1	0	n/a	n/a	0.0	0	0	0	catFR2	0	R1028M
2474.942	0.006	1465706	STOP	n/a	n/a	n/a	n/a	-999	0	18	[-999, -999, -999]	n/a	0	1	0	n/a	n/a	0.0	0	0	0	catFR2	0	R1028M
2474.948	1.201	1465709	DISTRACT_END	n/a	n/a	n/a	n/a	-999	0	18	[0, 0, 0]	n/a	0	1	0	n/a	n/a	0.0	0	0	0	catFR2	0	R1028M
2476.149	2.307	1466310	REC_START	n/a	n/a	n/a	n/a	-999	0	18	[0, 0, 0]	n/a	0	1	0	n/a	n/a	0.0	0	0	0	catFR2	0	R1028M
2478.456	0.547	1467463	REC_WORD	2.307	n/a	OVEN	Appliances	1	1	18	[0, 0, 0]	n/a	0	1	0	n/a	n/a	0.0	0	0	0	catFR2	0	R1028M
2479.003	0.844	1467737	REC_WORD	2.854	n/a	STOVE	Appliances	10	1	18	[0, 0, 0]	n/a	0	1	0	n/a	n/a	0.0	0	0	0	catFR2	0	R1028M
2479.847	0.889	1468159	REC_WORD	3.698	n/a	FREEZER	Appliances	9	1	18	[0, 0, 0]	n/a	0	1	0	n/a	n/a	0.0	0	0	0	catFR2	0	R1028M
2480.736	1.485	1468603	REC_WORD	4.587	n/a	CEILING	n/a	-999	0	18	[0, 0, 0]	n/a	0	1	0	n/a	n/a	0.0	0	0	0	catFR2	0	R1028M
2482.221	1.009	1469346	REC_WORD	6.072	n/a	IRON	Appliances	2	1	18	[0, 0, 0]	n/a	0	1	0	n/a	n/a	0.0	0	0	0	catFR2	0	R1028M
2483.23	4.474	1469850	REC_WORD	7.081	n/a	WALL	Building	3	1	18	[0, 0, 0]	n/a	0	1	0	n/a	n/a	0.0	0	0	0	catFR2	0	R1028M
2487.704	1.23	1472087	REC_WORD	11.555	n/a	MOUSSE	Desserts	5	1	18	[0, 0, 0]	n/a	0	1	0	n/a	n/a	0.0	0	0	0	catFR2	0	R1028M
2488.934	1.745	1472702	REC_WORD	12.785	n/a	PIE	Desserts	12	1	18	[0, 0, 0]	n/a	0	1	0	n/a	n/a	0.0	0	0	0	catFR2	0	R1028M
2490.679	0.641	1473574	REC_WORD	14.53	n/a	CAKE	Desserts	11	1	18	[0, 0, 0]	n/a	0	1	0	n/a	n/a	0.0	0	0	0	catFR2	0	R1028M
2491.32	4.782	1473895	REC_WORD	15.171	n/a	FOUNDATION	Building	7	1	18	[0, 0, 0]	n/a	0	1	0	n/a	n/a	0.0	0	0	0	catFR2	0	R1028M
2496.102	6.086	1476285	REC_WORD	19.953	n/a	WINDOW	Building	4	1	18	[0, 0, 0]	n/a	0	1	0	n/a	n/a	0.0	0	0	0	catFR2	0	R1028M
2502.188	3.971	1479328	REC_WORD	26.039	n/a	FLOOR	n/a	-999	0	18	[0, 0, 0]	n/a	0	1	0	n/a	n/a	0.0	0	0	0	catFR2	0	R1028M
2506.159	28.751	1481313	REC_END	n/a	n/a	n/a	n/a	-999	0	18	[0, 0, 0]	n/a	0	1	0	n/a	n/a	0.0	0	0	0	catFR2	0	R1028M
2534.91	0.0	1495687	TRIAL	n/a	n/a	n/a	n/a	-999	0	19	[0, 0, 0]	n/a	0	0	0	n/a	n/a	0.0	0	0	0	catFR2	0	R1028M
2534.91	10.0	1495687	COUNTDOWN_START	n/a	n/a	n/a	n/a	-999	0	19	[0, 0, 0]	n/a	0	0	0	n/a	n/a	0.0	0	0	0	catFR2	0	R1028M
2545.338	0.007	1500901	COUNTDOWN_END	n/a	n/a	n/a	n/a	-999	0	19	[0, 0, 0]	n/a	0	0	0	n/a	n/a	0.0	0	0	0	catFR2	0	R1028M
2545.345	1.6	1500904	ORIENT	n/a	n/a	n/a	n/a	-999	0	19	[0, 0, 0]	n/a	0	0	0	n/a	n/a	0.0	0	0	0	catFR2	0	R1028M
2548.912	1.6	1502688	WORD	n/a	wordpools/wordpool_categorized_EN.txt	DUCK	Birds	1	1	19	[0, 0, 0]	n/a	0	0	0	n/a	n/a	0.0	0	0	0	catFR2	0	R1028M
2551.48	1.6	1503971	WORD	n/a	wordpools/wordpool_categorized_EN.txt	FINCH	Birds	2	1	19	[0, 0, 0]	n/a	0	0	0	n/a	n/a	0.0	0	0	0	catFR2	0	R1028M
2553.93	1.6	1505196	WORD	n/a	wordpools/wordpool_categorized_EN.txt	PEAS	Vegetables	3	1	19	[0, 0, 0]	n/a	0	0	0	n/a	n/a	0.0	0	0	0	catFR2	0	R1028M
2556.381	1.6	1506422	WORD	n/a	wordpools/wordpool_categorized_EN.txt	SPINACH	Vegetables	4	1	19	[0, 0, 0]	n/a	0	0	0	n/a	n/a	0.0	0	0	0	catFR2	0	R1028M
2558.882	1.6	1507672	WORD	n/a	wordpools/wordpool_categorized_EN.txt	GRAPE	Fruit	5	0	19	[0, 0, 0]	n/a	0	0	0	n/a	n/a	0.0	0	0	0	catFR2	0	R1028M
2561.482	1.6	1508972	WORD	n/a	wordpools/wordpool_categorized_EN.txt	BANANA	Fruit	6	0	19	[0, 0, 0]	n/a	0	0	0	n/a	n/a	0.0	0	0	0	catFR2	0	R1028M
2563.932	1.6	1510197	WORD	n/a	wordpools/wordpool_categorized_EN.txt	LETTUCE	Vegetables	7	1	19	[0, 0, 0]	n/a	0	0	0	n/a	n/a	0.0	0	0	0	catFR2	0	R1028M
2566.517	1.6	1511489	WORD	n/a	wordpools/wordpool_categorized_EN.txt	POTATO	Vegetables	8	1	19	[0, 0, 0]	n/a	0	0	0	n/a	n/a	0.0	0	0	0	catFR2	0	R1028M
2569.016	1.6	1512739	WORD	n/a	wordpools/wordpool_categorized_EN.txt	CROW	Birds	9	1	19	[0, 0, 0]	n/a	0	0	0	n/a	n/a	0.0	0	0	0	catFR2	0	R1028M
2571.468	1.6	1513964	WORD	n/a	wordpools/wordpool_categorized_EN.txt	SEAGULL	Birds	10	0	19	[0, 0, 0]	n/a	0	0	0	n/a	n/a	0.0	0	0	0	catFR2	0	R1028M
2574.051	1.6	1515256	WORD	n/a	wordpools/wordpool_categorized_EN.txt	BLUEBERRY	Fruit	11	1	19	[0, 0, 0]	n/a	0	0	0	n/a	n/a	0.0	0	0	0	catFR2	0	R1028M
2576.568	1.6	1516514	WORD	n/a	wordpools/wordpool_categorized_EN.txt	PEACH	Fruit	12	1	19	[0, 0, 0]	n/a	0	0	0	n/a	n/a	0.0	0	0	0	catFR2	0	R1028M
2578.185	0.001	1517323	DISTRACT_START	n/a	n/a	n/a	n/a	-999	0	19	[0, 0, 0]	n/a	0	0	0	n/a	n/a	0.0	0	0	0	catFR2	0	R1028M
2578.186	0.015	1517323	START	n/a	n/a	n/a	n/a	-999	0	19	[-999, -999, -999]	n/a	0	0	0	n/a	n/a	0.0	0	0	0	catFR2	0	R1028M
2578.201	3.734	1517331	PROB	3.709	n/a	n/a	n/a	-999	0	19	[6, 2, 5]	13	0	0	0	n/a	n/a	0.0	0	0	0	catFR2	0	R1028M
2581.935	3.051	1519197	PROB	3.023	n/a	n/a	n/a	-999	0	19	[6, 1, 2]	9	0	0	0	n/a	n/a	0.0	0	0	0	catFR2	0	R1028M
2584.986	4.735	1520723	PROB	4.709	n/a	n/a	n/a	-999	0	19	[9, 6, 7]	22	0	0	0	n/a	n/a	0.0	0	0	0	catFR2	0	R1028M
2589.721	4.134	1523090	PROB	4.11	n/a	n/a	n/a	-999	0	19	[3, 6, 6]	15	0	0	0	n/a	n/a	0.0	0	0	0	catFR2	0	R1028M
2593.855	3.317	1525157	PROB	3.287	n/a	n/a	n/a	-999	0	19	[8, 4, 9]	21	0	0	0	n/a	n/a	0.0	0	0	0	catFR2	0	R1028M
2597.172	4.01	1526815	PROB	4.01	n/a	n/a	n/a	-999	0	19	[2, 5, 6]	13	0	0	0	n/a	n/a	0.0	0	0	0	catFR2	0	R1028M
2601.182	0.007	1528820	STOP	n/a	n/a	n/a	n/a	-999	0	19	[-999, -999, -999]	n/a	0	0	0	n/a	n/a	0.0	0	0	0	catFR2	0	R1028M
2601.189	1.201	1528823	DISTRACT_END	n/a	n/a	n/a	n/a	-999	0	19	[0, 0, 0]	n/a	0	0	0	n/a	n/a	0.0	0	0	0	catFR2	0	R1028M
2602.39	2.237	1529424	REC_START	n/a	n/a	n/a	n/a	-999	0	19	[0, 0, 0]	n/a	0	0	0	n/a	n/a	0.0	0	0	0	catFR2	0	R1028M
2604.627	4.099	1530542	REC_WORD	2.237	n/a	SPINACH	Vegetables	4	1	19	[0, 0, 0]	n/a	0	0	0	n/a	n/a	0.0	0	0	0	catFR2	0	R1028M
2608.726	0.943	1532591	REC_WORD	6.336	n/a	LETTUCE	Vegetables	7	1	19	[0, 0, 0]	n/a	0	0	0	n/a	n/a	0.0	0	0	0	catFR2	0	R1028M
2609.669	1.854	1533063	REC_WORD	7.279	n/a	POTATO	Vegetables	8	1	19	[0, 0, 0]	n/a	0	0	0	n/a	n/a	0.0	0	0	0	catFR2	0	R1028M
2611.523	2.48	1533990	REC_WORD	9.133	n/a	PEAS	Vegetables	3	1	19	[0, 0, 0]	n/a	0	0	0	n/a	n/a	0.0	0	0	0	catFR2	0	R1028M
2614.003	1.032	1535230	REC_WORD	11.613	n/a	FINCH	Birds	2	1	19	[0, 0, 0]	n/a	0	0	0	n/a	n/a	0.0	0	0	0	catFR2	0	R1028M
2615.035	3.28	1535746	REC_WORD	12.645	n/a	DUCK	Birds	1	1	19	[0, 0, 0]	n/a	0	0	0	n/a	n/a	0.0	0	0	0	catFR2	0	R1028M
2618.315	1.927	1537386	REC_WORD	15.925	n/a	BLUEBERRY	Fruit	11	1	19	[0, 0, 0]	n/a	0	0	0	n/a	n/a	0.0	0	0	0	catFR2	0	R1028M
2620.242	5.791	1538349	REC_WORD	17.852	n/a	PEACH	Fruit	12	1	19	[0, 0, 0]	n/a	0	0	0	n/a	n/a	0.0	0	0	0	catFR2	0	R1028M
2626.033	6.367	1541244	REC_WORD	23.643	n/a	CROW	Birds	9	1	19	[0, 0, 0]	n/a	0	0	0	n/a	n/a	0.0	0	0	0	catFR2	0	R1028M
2632.4	8.68	1544427	REC_END	n/a	n/a	n/a	n/a	-999	0	19	[0, 0, 0]	n/a	0	0	0	n/a	n/a	0.0	0	0	0	catFR2	0	R1028M
2641.08	0.0	1548767	TRIAL	n/a	n/a	n/a	n/a	-999	0	20	[0, 0, 0]	n/a	0	1	0	n/a	n/a	0.0	0	0	0	catFR2	0	R1028M
