onset	duration	sample	trial_type	response_time	stim_file	item_name	category	serialpos	recalled	list	test	answer	stimulation	stim_list	stim_duration	anode_label	cathode_label	amplitude	pulse_freq	n_pulses	pulse_width	experiment	session	subject
0.0	30.291	371549	SESS_START	n/a	n/a	n/a	n/a	-999	0	-999	[0, 0, 0]	n/a	0	0	0	n/a	n/a	0.0	0	0	0	catFR2	0	R1039M
30.291	10.0	386694	COUNTDOWN_START	n/a	n/a	n/a	n/a	-999	0	-999	[0, 0, 0]	n/a	0	0	0	n/a	n/a	0.0	0	0	0	catFR2	0	R1039M
40.719	3.708	391907	COUNTDOWN_END	n/a	n/a	n/a	n/a	-999	0	-999	[0, 0, 0]	n/a	0	0	0	n/a	n/a	0.0	0	0	0	catFR2	0	R1039M
44.427	1.6	393761	PRACTICE_WORD	n/a	n/a	PECHO	n/a	-999	0	1	[0, 0, 0]	n/a	0	0	0	n/a	n/a	0.0	0	0	0	catFR2	0	R1039M
47.044	1.6	395070	PRACTICE_WORD	n/a	n/a	ANILLO	n/a	-999	0	2	[0, 0, 0]	n/a	0	0	0	n/a	n/a	0.0	0	0	0	catFR2	0	R1039M
49.578	1.6	396337	PRACTICE_WORD	n/a	n/a	HAZ	n/a	-999	0	3	[0, 0, 0]	n/a	0	0	0	n/a	n/a	0.0	0	0	0	catFR2	0	R1039M
52.096	1.6	397596	PRACTICE_WORD	n/a	n/a	HIERRO	n/a	-999	0	4	[0, 0, 0]	n/a	0	0	0	n/a	n/a	0.0	0	0	0	catFR2	0	R1039M
54.629	1.6	398862	PRACTICE_WORD	n/a	n/a	ATICO	n/a	-999	0	5	[0, 0, 0]	n/a	0	0	0	n/a	n/a	0.0	0	0	0	catFR2	0	R1039M
57.13	1.6	400112	PRACTICE_WORD	n/a	n/a	RELOJ	n/a	-999	0	6	[0, 0, 0]	n/a	0	0	0	n/a	n/a	0.0	0	0	0	catFR2	0	R1039M
59.614	1.6	401354	PRACTICE_WORD	n/a	n/a	VAGON	n/a	-999	0	7	[0, 0, 0]	n/a	0	0	0	n/a	n/a	0.0	0	0	0	catFR2	0	R1039M
62.047	1.6	402571	PRACTICE_WORD	n/a	n/a	LENGUA	n/a	-999	0	8	[0, 0, 0]	n/a	0	0	0	n/a	n/a	0.0	0	0	0	catFR2	0	R1039M
64.631	1.6	403863	PRACTICE_WORD	n/a	n/a	RINOCERONTE	n/a	-999	0	9	[0, 0, 0]	n/a	0	0	0	n/a	n/a	0.0	0	0	0	catFR2	0	R1039M
67.149	1.6	405122	PRACTICE_WORD	n/a	n/a	CAMELLO	n/a	-999	0	10	[0, 0, 0]	n/a	0	0	0	n/a	n/a	0.0	0	0	0	catFR2	0	R1039M
69.549	1.6	406322	PRACTICE_WORD	n/a	n/a	INUNDACION	n/a	-999	0	11	[0, 0, 0]	n/a	0	0	0	n/a	n/a	0.0	0	0	0	catFR2	0	R1039M
71.948	1.6	407521	PRACTICE_WORD	n/a	n/a	ALGODON	n/a	-999	0	12	[0, 0, 0]	n/a	0	0	0	n/a	n/a	0.0	0	0	0	catFR2	0	R1039M
73.549	0.001	408322	PRACTICE_DISTRACT_START	n/a	n/a	n/a	n/a	-999	0	-999	[0, 0, 0]	n/a	0	0	0	n/a	n/a	0.0	0	0	0	catFR2	0	R1039M
73.55	0.016	408322	START	n/a	n/a	n/a	n/a	-999	0	-1	[-999, -999, -999]	n/a	0	-999	0	n/a	n/a	0.0	0	0	0	catFR2	0	R1039M
73.566	7.969	408330	PROB	7.946	n/a	n/a	n/a	-999	0	-1	[2, 7, 4]	13	0	-999	0	n/a	n/a	0.0	0	0	0	catFR2	0	R1039M
81.535	5.067	412314	PROB	5.041	n/a	n/a	n/a	-999	0	-1	[2, 2, 8]	12	0	-999	0	n/a	n/a	0.0	0	0	0	catFR2	0	R1039M
86.602	8.429	414848	PROB	8.429	n/a	n/a	n/a	-999	0	-1	[8, 4, 5]	17	0	-999	0	n/a	n/a	0.0	0	0	0	catFR2	0	R1039M
95.031	0.006	419062	STOP	n/a	n/a	n/a	n/a	-999	0	-1	[-999, -999, -999]	n/a	0	-999	0	n/a	n/a	0.0	0	0	0	catFR2	0	R1039M
95.037	0.603	419065	PRACTICE_DISTRACT_END	n/a	n/a	n/a	n/a	-999	0	-999	[0, 0, 0]	n/a	0	0	0	n/a	n/a	0.0	0	0	0	catFR2	0	R1039M
95.64	30.514	419366	PRACTICE_REC_START	n/a	n/a	n/a	n/a	-999	0	-999	[0, 0, 0]	n/a	0	0	0	n/a	n/a	0.0	0	0	0	catFR2	0	R1039M
126.154	20.51	434623	PRACTICE_REC_END	n/a	n/a	n/a	n/a	-999	0	-999	[0, 0, 0]	n/a	0	0	0	n/a	n/a	0.0	0	0	0	catFR2	0	R1039M
146.664	0.0	444877	TRIAL	n/a	n/a	n/a	n/a	-999	0	1	[0, 0, 0]	n/a	0	1	0	n/a	n/a	0.0	0	0	0	catFR2	0	R1039M
146.664	10.0	444877	COUNTDOWN_START	n/a	n/a	n/a	n/a	-999	0	1	[0, 0, 0]	n/a	0	1	0	n/a	n/a	0.0	0	0	0	catFR2	0	R1039M
157.092	0.007	450091	COUNTDOWN_END	n/a	n/a	n/a	n/a	-999	0	1	[0, 0, 0]	n/a	0	1	0	n/a	n/a	0.0	0	0	0	catFR2	0	R1039M
157.099	1.6	450094	ORIENT	n/a	n/a	n/a	n/a	-999	0	1	[0, 0, 0]	n/a	0	1	0	n/a	n/a	0.0	0	0	0	catFR2	0	R1039M
160.845	4.6	451967	STIM_ON	n/a	n/a	n/a	n/a	-999	0	1	[0, 0, 0]	n/a	1	1	4600	RFG5	RFG6	3000.0	50	230	300	catFR2	0	R1039M
161.05	1.6	452070	WORD	n/a	wordpools/wordpool_categorized_SP.txt	BIZCOCHO	Desserts	1	1	1	[0, 0, 0]	n/a	1	1	4600	RFG5	RFG6	3000.0	50	230	300	catFR2	0	R1039M
163.567	1.6	453328	WORD	n/a	wordpools/wordpool_categorized_SP.txt	PUDIN	Desserts	2	0	1	[0, 0, 0]	n/a	1	1	4600	RFG5	RFG6	3000.0	50	230	300	catFR2	0	R1039M
166.168	1.6	454629	WORD	n/a	wordpools/wordpool_categorized_SP.txt	CALZON	Clothing	3	0	1	[0, 0, 0]	n/a	0	1	0	n/a	n/a	0.0	0	0	0	catFR2	0	R1039M
168.752	1.6	455920	WORD	n/a	wordpools/wordpool_categorized_SP.txt	MEDIAS	Clothing	4	0	1	[0, 0, 0]	n/a	0	1	0	n/a	n/a	0.0	0	0	0	catFR2	0	R1039M
171.078	4.6	457083	STIM_ON	n/a	n/a	n/a	n/a	-999	0	1	[0, 0, 0]	n/a	1	1	4600	RFG5	RFG6	3000.0	50	230	300	catFR2	0	R1039M
171.285	1.6	457187	WORD	n/a	wordpools/wordpool_categorized_SP.txt	CUCARACHA	Insects	5	0	1	[0, 0, 0]	n/a	1	1	4600	RFG5	RFG6	3000.0	50	230	300	catFR2	0	R1039M
173.852	1.6	458470	WORD	n/a	wordpools/wordpool_categorized_SP.txt	MARIQUITA	Insects	6	1	1	[0, 0, 0]	n/a	1	1	4600	RFG5	RFG6	3000.0	50	230	300	catFR2	0	R1039M
176.336	1.6	459712	WORD	n/a	wordpools/wordpool_categorized_SP.txt	CAMISA	Clothing	7	1	1	[0, 0, 0]	n/a	0	1	0	n/a	n/a	0.0	0	0	0	catFR2	0	R1039M
178.887	1.6	460988	WORD	n/a	wordpools/wordpool_categorized_SP.txt	BLUSA	Clothing	8	0	1	[0, 0, 0]	n/a	0	1	0	n/a	n/a	0.0	0	0	0	catFR2	0	R1039M
181.163	4.6	462126	STIM_ON	n/a	n/a	n/a	n/a	-999	0	1	[0, 0, 0]	n/a	1	1	4600	RFG5	RFG6	3000.0	50	230	300	catFR2	0	R1039M
181.371	1.6	462230	WORD	n/a	wordpools/wordpool_categorized_SP.txt	MASA	Desserts	9	0	1	[0, 0, 0]	n/a	1	1	4600	RFG5	RFG6	3000.0	50	230	300	catFR2	0	R1039M
183.771	1.6	463430	WORD	n/a	wordpools/wordpool_categorized_SP.txt	PAY	Desserts	10	0	1	[0, 0, 0]	n/a	1	1	4600	RFG5	RFG6	3000.0	50	230	300	catFR2	0	R1039M
186.188	1.6	464638	WORD	n/a	wordpools/wordpool_categorized_SP.txt	ESCARABAJO	Insects	11	1	1	[0, 0, 0]	n/a	0	1	0	n/a	n/a	0.0	0	0	0	catFR2	0	R1039M
188.705	1.6	465896	WORD	n/a	wordpools/wordpool_categorized_SP.txt	ZANCUDO	Insects	12	0	1	[0, 0, 0]	n/a	0	1	0	n/a	n/a	0.0	0	0	0	catFR2	0	R1039M
190.322	0.001	466705	DISTRACT_START	n/a	n/a	n/a	n/a	-999	0	1	[0, 0, 0]	n/a	0	1	0	n/a	n/a	0.0	0	0	0	catFR2	0	R1039M
190.323	0.016	466705	START	n/a	n/a	n/a	n/a	-999	0	1	[-999, -999, -999]	n/a	0	1	0	n/a	n/a	0.0	0	0	0	catFR2	0	R1039M
190.339	7.468	466713	PROB	7.436	n/a	n/a	n/a	-999	0	1	[3, 8, 4]	15	0	1	0	n/a	n/a	0.0	0	0	0	catFR2	0	R1039M
197.807	8.018	470447	PROB	7.985	n/a	n/a	n/a	-999	0	1	[4, 3, 6]	13	0	1	0	n/a	n/a	0.0	0	0	0	catFR2	0	R1039M
205.825	5.966	474456	PROB	5.966	n/a	n/a	n/a	-999	0	1	[1, 8, 8]	17	0	1	0	n/a	n/a	0.0	0	0	0	catFR2	0	R1039M
211.791	0.019	477439	STOP	n/a	n/a	n/a	n/a	-999	0	1	[-999, -999, -999]	n/a	0	1	0	n/a	n/a	0.0	0	0	0	catFR2	0	R1039M
211.81	1.051	477448	DISTRACT_END	n/a	n/a	n/a	n/a	-999	0	1	[0, 0, 0]	n/a	0	1	0	n/a	n/a	0.0	0	0	0	catFR2	0	R1039M
212.861	1.964	477974	REC_START	n/a	n/a	n/a	n/a	-999	0	1	[0, 0, 0]	n/a	0	1	0	n/a	n/a	0.0	0	0	0	catFR2	0	R1039M
214.825	2.226	478956	REC_WORD	1.964	n/a	ESCARABAJO	Insects	11	1	1	[0, 0, 0]	n/a	0	1	0	n/a	n/a	0.0	0	0	0	catFR2	0	R1039M
217.051	5.246	480069	REC_WORD	4.19	n/a	CAMISA	Clothing	7	1	1	[0, 0, 0]	n/a	0	1	0	n/a	n/a	0.0	0	0	0	catFR2	0	R1039M
222.297	3.531	482692	REC_WORD	9.436	n/a	BIZCOCHO	Desserts	1	1	1	[0, 0, 0]	n/a	0	1	0	n/a	n/a	0.0	0	0	0	catFR2	0	R1039M
225.828	3.353	484457	REC_WORD_VV	12.967	n/a	<>	n/a	-999	0	1	[0, 0, 0]	n/a	0	1	0	n/a	n/a	0.0	0	0	0	catFR2	0	R1039M
229.181	13.691	486133	REC_WORD	16.32	n/a	MARIQUITA	Insects	6	1	1	[0, 0, 0]	n/a	0	1	0	n/a	n/a	0.0	0	0	0	catFR2	0	R1039M
242.872	5.245	492979	REC_END	n/a	n/a	n/a	n/a	-999	0	1	[0, 0, 0]	n/a	0	1	0	n/a	n/a	0.0	0	0	0	catFR2	0	R1039M
248.117	0.0	495601	TRIAL	n/a	n/a	n/a	n/a	-999	0	2	[0, 0, 0]	n/a	0	1	0	n/a	n/a	0.0	0	0	0	catFR2	0	R1039M
248.117	10.0	495601	COUNTDOWN_START	n/a	n/a	n/a	n/a	-999	0	2	[0, 0, 0]	n/a	0	1	0	n/a	n/a	0.0	0	0	0	catFR2	0	R1039M
258.545	0.007	500815	COUNTDOWN_END	n/a	n/a	n/a	n/a	-999	0	2	[0, 0, 0]	n/a	0	1	0	n/a	n/a	0.0	0	0	0	catFR2	0	R1039M
258.552	1.6	500818	ORIENT	n/a	n/a	n/a	n/a	-999	0	2	[0, 0, 0]	n/a	0	1	0	n/a	n/a	0.0	0	0	0	catFR2	0	R1039M
262.17	1.6	502627	WORD	n/a	wordpools/wordpool_categorized_SP.txt	CALENDULA	Flowers	1	0	2	[0, 0, 0]	n/a	0	1	0	n/a	n/a	0.0	0	0	0	catFR2	0	R1039M
264.737	1.6	503910	WORD	n/a	wordpools/wordpool_categorized_SP.txt	ROSA	Flowers	2	0	2	[0, 0, 0]	n/a	0	1	0	n/a	n/a	0.0	0	0	0	catFR2	0	R1039M
266.965	4.6	505024	STIM_ON	n/a	n/a	n/a	n/a	-999	0	2	[0, 0, 0]	n/a	1	1	4600	RFG5	RFG6	3000.0	50	230	300	catFR2	0	R1039M
267.171	1.6	505127	WORD	n/a	wordpools/wordpool_categorized_SP.txt	BORRADOR	OfficeSupplies	3	1	2	[0, 0, 0]	n/a	1	1	4600	RFG5	RFG6	3000.0	50	230	300	catFR2	0	R1039M
269.621	1.6	506352	WORD	n/a	wordpools/wordpool_categorized_SP.txt	PEGAMENTO	OfficeSupplies	4	0	2	[0, 0, 0]	n/a	1	1	4600	RFG5	RFG6	3000.0	50	230	300	catFR2	0	R1039M
272.121	1.6	507602	WORD	n/a	wordpools/wordpool_categorized_SP.txt	PASTELILLO	Desserts	5	0	2	[0, 0, 0]	n/a	0	1	0	n/a	n/a	0.0	0	0	0	catFR2	0	R1039M
274.555	1.6	508819	WORD	n/a	wordpools/wordpool_categorized_SP.txt	GELATINA	Desserts	6	0	2	[0, 0, 0]	n/a	0	1	0	n/a	n/a	0.0	0	0	0	catFR2	0	R1039M
276.95	4.6	510017	STIM_ON	n/a	n/a	n/a	n/a	-999	0	2	[0, 0, 0]	n/a	1	1	4600	RFG5	RFG6	3000.0	50	230	300	catFR2	0	R1039M
277.156	1.6	510120	WORD	n/a	wordpools/wordpool_categorized_SP.txt	GRAPADORA	OfficeSupplies	7	0	2	[0, 0, 0]	n/a	1	1	4600	RFG5	RFG6	3000.0	50	230	300	catFR2	0	R1039M
279.673	1.6	511378	WORD	n/a	wordpools/wordpool_categorized_SP.txt	LIBRETA	OfficeSupplies	8	1	2	[0, 0, 0]	n/a	1	1	4600	RFG5	RFG6	3000.0	50	230	300	catFR2	0	R1039M
282.09	1.6	512586	WORD	n/a	wordpools/wordpool_categorized_SP.txt	VIOLETA	Flowers	9	1	2	[0, 0, 0]	n/a	0	1	0	n/a	n/a	0.0	0	0	0	catFR2	0	R1039M
284.507	1.6	513795	WORD	n/a	wordpools/wordpool_categorized_SP.txt	CLAVEL	Flowers	10	0	2	[0, 0, 0]	n/a	0	1	0	n/a	n/a	0.0	0	0	0	catFR2	0	R1039M
286.738	4.6	514910	STIM_ON	n/a	n/a	n/a	n/a	-999	0	2	[0, 0, 0]	n/a	1	1	4600	RFG5	RFG6	3000.0	50	230	300	catFR2	0	R1039M
286.94	1.6	515011	WORD	n/a	wordpools/wordpool_categorized_SP.txt	DULCE	Desserts	11	0	2	[0, 0, 0]	n/a	1	1	4600	RFG5	RFG6	3000.0	50	230	300	catFR2	0	R1039M
289.341	1.6	516212	WORD	n/a	wordpools/wordpool_categorized_SP.txt	TARTA	Desserts	12	0	2	[0, 0, 0]	n/a	1	1	4600	RFG5	RFG6	3000.0	50	230	300	catFR2	0	R1039M
290.958	0.001	517020	DISTRACT_START	n/a	n/a	n/a	n/a	-999	0	2	[0, 0, 0]	n/a	0	1	0	n/a	n/a	0.0	0	0	0	catFR2	0	R1039M
290.959	0.016	517021	START	n/a	n/a	n/a	n/a	-999	0	2	[-999, -999, -999]	n/a	0	1	0	n/a	n/a	0.0	0	0	0	catFR2	0	R1039M
290.975	5.201	517029	PROB	5.176	n/a	n/a	n/a	-999	0	2	[3, 2, 6]	11	0	1	0	n/a	n/a	0.0	0	0	0	catFR2	0	R1039M
296.176	5.651	519629	PROB	5.631	n/a	n/a	n/a	-999	0	2	[9, 9, 1]	19	0	1	0	n/a	n/a	0.0	0	0	0	catFR2	0	R1039M
301.827	5.001	522454	PROB	4.981	n/a	n/a	n/a	-999	0	2	[5, 1, 1]	7	0	1	0	n/a	n/a	0.0	0	0	0	catFR2	0	R1039M
306.828	8.244	524955	PROB	8.244	n/a	n/a	n/a	-999	0	2	[9, 4, 4]	17	0	1	0	n/a	n/a	0.0	0	0	0	catFR2	0	R1039M
315.072	0.008	529077	STOP	n/a	n/a	n/a	n/a	-999	0	2	[-999, -999, -999]	n/a	0	1	0	n/a	n/a	0.0	0	0	0	catFR2	0	R1039M
315.08	1.084	529081	DISTRACT_END	n/a	n/a	n/a	n/a	-999	0	2	[0, 0, 0]	n/a	0	1	0	n/a	n/a	0.0	0	0	0	catFR2	0	R1039M
316.164	1.132	529623	REC_START	n/a	n/a	n/a	n/a	-999	0	2	[0, 0, 0]	n/a	0	1	0	n/a	n/a	0.0	0	0	0	catFR2	0	R1039M
317.296	1.918	530189	REC_WORD	1.132	n/a	BORRADOR	OfficeSupplies	3	1	2	[0, 0, 0]	n/a	0	1	0	n/a	n/a	0.0	0	0	0	catFR2	0	R1039M
319.214	2.463	531147	REC_WORD	3.05	n/a	LIBRETA	OfficeSupplies	8	1	2	[0, 0, 0]	n/a	0	1	0	n/a	n/a	0.0	0	0	0	catFR2	0	R1039M
321.677	6.328	532379	REC_WORD	5.513	n/a	CARUCAKIA	n/a	-999	0	2	[0, 0, 0]	n/a	0	1	0	n/a	n/a	0.0	0	0	0	catFR2	0	R1039M
328.005	18.17	535543	REC_WORD	11.841	n/a	VIOLETA	Flowers	9	1	2	[0, 0, 0]	n/a	0	1	0	n/a	n/a	0.0	0	0	0	catFR2	0	R1039M
346.175	50.753	544627	REC_END	n/a	n/a	n/a	n/a	-999	0	2	[0, 0, 0]	n/a	0	1	0	n/a	n/a	0.0	0	0	0	catFR2	0	R1039M
396.928	10.0	570002	COUNTDOWN_START	n/a	n/a	n/a	n/a	-999	0	3	[0, 0, 0]	n/a	0	1	0	n/a	n/a	0.0	0	0	0	catFR2	0	R1039M
396.929	10.427	570003	TRIAL	n/a	n/a	n/a	n/a	-999	0	3	[0, 0, 0]	n/a	0	1	0	n/a	n/a	0.0	0	0	0	catFR2	0	R1039M
407.356	0.008	575216	COUNTDOWN_END	n/a	n/a	n/a	n/a	-999	0	3	[0, 0, 0]	n/a	0	1	0	n/a	n/a	0.0	0	0	0	catFR2	0	R1039M
407.364	1.6	575220	ORIENT	n/a	n/a	n/a	n/a	-999	0	3	[0, 0, 0]	n/a	0	1	0	n/a	n/a	0.0	0	0	0	catFR2	0	R1039M
411.015	1.6	577046	WORD	n/a	wordpools/wordpool_categorized_SP.txt	LIMON	Fruit	1	1	3	[0, 0, 0]	n/a	0	1	0	n/a	n/a	0.0	0	0	0	catFR2	0	R1039M
413.582	1.6	578329	WORD	n/a	wordpools/wordpool_categorized_SP.txt	LIMA	Fruit	2	1	3	[0, 0, 0]	n/a	0	1	0	n/a	n/a	0.0	0	0	0	catFR2	0	R1039M
415.764	4.6	579420	STIM_ON	n/a	n/a	n/a	n/a	-999	0	3	[0, 0, 0]	n/a	1	1	4600	RFG5	RFG6	3000.0	50	230	300	catFR2	0	R1039M
415.966	1.6	579521	WORD	n/a	wordpools/wordpool_categorized_SP.txt	MARTILLO	Tools	3	1	3	[0, 0, 0]	n/a	1	1	4600	RFG5	RFG6	3000.0	50	230	300	catFR2	0	R1039M
418.366	1.6	580721	WORD	n/a	wordpools/wordpool_categorized_SP.txt	TALADRO	Tools	4	1	3	[0, 0, 0]	n/a	1	1	4600	RFG5	RFG6	3000.0	50	230	300	catFR2	0	R1039M
420.949	1.6	582012	WORD	n/a	wordpools/wordpool_categorized_SP.txt	PINO	Trees	5	0	3	[0, 0, 0]	n/a	0	1	0	n/a	n/a	0.0	0	0	0	catFR2	0	R1039M
423.551	1.6	583313	WORD	n/a	wordpools/wordpool_categorized_SP.txt	ARCE	Trees	6	0	3	[0, 0, 0]	n/a	0	1	0	n/a	n/a	0.0	0	0	0	catFR2	0	R1039M
425.959	4.6	584517	STIM_ON	n/a	n/a	n/a	n/a	-999	0	3	[0, 0, 0]	n/a	1	1	4600	RFG5	RFG6	3000.0	50	230	300	catFR2	0	R1039M
426.168	1.6	584622	WORD	n/a	wordpools/wordpool_categorized_SP.txt	PALANCA	Tools	7	0	3	[0, 0, 0]	n/a	1	1	4600	RFG5	RFG6	3000.0	50	230	300	catFR2	0	R1039M
428.668	1.6	585872	WORD	n/a	wordpools/wordpool_categorized_SP.txt	HACHA	Tools	8	0	3	[0, 0, 0]	n/a	1	1	4600	RFG5	RFG6	3000.0	50	230	300	catFR2	0	R1039M
431.052	1.6	587063	WORD	n/a	wordpools/wordpool_categorized_SP.txt	PLATANO	Fruit	9	1	3	[0, 0, 0]	n/a	0	1	0	n/a	n/a	0.0	0	0	0	catFR2	0	R1039M
433.452	1.6	588263	WORD	n/a	wordpools/wordpool_categorized_SP.txt	FRESA	Fruit	10	1	3	[0, 0, 0]	n/a	0	1	0	n/a	n/a	0.0	0	0	0	catFR2	0	R1039M
435.677	4.6	589376	STIM_ON	n/a	n/a	n/a	n/a	-999	0	3	[0, 0, 0]	n/a	1	1	4600	RFG5	RFG6	3000.0	50	230	300	catFR2	0	R1039M
435.886	1.6	589480	WORD	n/a	wordpools/wordpool_categorized_SP.txt	NUEZ	Trees	11	1	3	[0, 0, 0]	n/a	1	1	4600	RFG5	RFG6	3000.0	50	230	300	catFR2	0	R1039M
438.354	1.6	590714	WORD	n/a	wordpools/wordpool_categorized_SP.txt	NOGAL	Trees	12	1	3	[0, 0, 0]	n/a	1	1	4600	RFG5	RFG6	3000.0	50	230	300	catFR2	0	R1039M
439.971	0.0	591523	DISTRACT_START	n/a	n/a	n/a	n/a	-999	0	3	[0, 0, 0]	n/a	0	1	0	n/a	n/a	0.0	0	0	0	catFR2	0	R1039M
439.971	0.016	591523	START	n/a	n/a	n/a	n/a	-999	0	3	[-999, -999, -999]	n/a	0	1	0	n/a	n/a	0.0	0	0	0	catFR2	0	R1039M
439.987	7.202	591531	PROB	7.173	n/a	n/a	n/a	-999	0	3	[5, 9, 4]	18	0	1	0	n/a	n/a	0.0	0	0	0	catFR2	0	R1039M
447.189	8.717	595132	PROB	8.691	n/a	n/a	n/a	-999	0	3	[3, 7, 9]	19	0	1	0	n/a	n/a	0.0	0	0	0	catFR2	0	R1039M
455.906	5.654	599490	PROB	5.654	n/a	n/a	n/a	-999	0	3	[3, 4, 5]	12	0	1	0	n/a	n/a	0.0	0	0	0	catFR2	0	R1039M
461.56	0.014	602317	STOP	n/a	n/a	n/a	n/a	-999	0	3	[-999, -999, -999]	n/a	0	1	0	n/a	n/a	0.0	0	0	0	catFR2	0	R1039M
461.574	1.218	602324	DISTRACT_END	n/a	n/a	n/a	n/a	-999	0	3	[0, 0, 0]	n/a	0	1	0	n/a	n/a	0.0	0	0	0	catFR2	0	R1039M
462.792	1.378	602933	REC_START	n/a	n/a	n/a	n/a	-999	0	3	[0, 0, 0]	n/a	0	1	0	n/a	n/a	0.0	0	0	0	catFR2	0	R1039M
464.17	0.6	603622	REC_WORD	1.378	n/a	FRESA	Fruit	10	1	3	[0, 0, 0]	n/a	0	1	0	n/a	n/a	0.0	0	0	0	catFR2	0	R1039M
464.77	0.793	603922	REC_WORD	1.978	n/a	PLATANO	Fruit	9	1	3	[0, 0, 0]	n/a	0	1	0	n/a	n/a	0.0	0	0	0	catFR2	0	R1039M
465.563	0.39	604318	REC_WORD	2.771	n/a	LIMA	Fruit	2	1	3	[0, 0, 0]	n/a	0	1	0	n/a	n/a	0.0	0	0	0	catFR2	0	R1039M
465.953	2.104	604513	REC_WORD	3.161	n/a	LIMON	Fruit	1	1	3	[0, 0, 0]	n/a	0	1	0	n/a	n/a	0.0	0	0	0	catFR2	0	R1039M
468.057	3.327	605565	REC_WORD	5.265	n/a	NOGAL	Trees	12	1	3	[0, 0, 0]	n/a	0	1	0	n/a	n/a	0.0	0	0	0	catFR2	0	R1039M
471.384	3.044	607228	REC_WORD	8.592	n/a	NUEZ	Trees	11	1	3	[0, 0, 0]	n/a	0	1	0	n/a	n/a	0.0	0	0	0	catFR2	0	R1039M
474.428	3.199	608750	REC_WORD	11.636	n/a	TALADRO	Tools	4	1	3	[0, 0, 0]	n/a	0	1	0	n/a	n/a	0.0	0	0	0	catFR2	0	R1039M
477.627	7.926	610350	REC_WORD	14.835	n/a	MARTILLO	Tools	3	1	3	[0, 0, 0]	n/a	0	1	0	n/a	n/a	0.0	0	0	0	catFR2	0	R1039M
485.553	4.026	614313	REC_WORD	22.761	n/a	FRESA	Fruit	10	1	3	[0, 0, 0]	n/a	0	1	0	n/a	n/a	0.0	0	0	0	catFR2	0	R1039M
489.579	3.228	616325	REC_WORD	26.787	n/a	NARANJA	n/a	-999	0	3	[0, 0, 0]	n/a	0	1	0	n/a	n/a	0.0	0	0	0	catFR2	0	R1039M
492.807	15.51	617939	REC_END	n/a	n/a	n/a	n/a	-999	0	3	[0, 0, 0]	n/a	0	1	0	n/a	n/a	0.0	0	0	0	catFR2	0	R1039M
508.317	10.0	625694	COUNTDOWN_START	n/a	n/a	n/a	n/a	-999	0	4	[0, 0, 0]	n/a	0	0	0	n/a	n/a	0.0	0	0	0	catFR2	0	R1039M
508.318	10.427	625694	TRIAL	n/a	n/a	n/a	n/a	-999	0	4	[0, 0, 0]	n/a	0	0	0	n/a	n/a	0.0	0	0	0	catFR2	0	R1039M
518.745	0.008	630908	COUNTDOWN_END	n/a	n/a	n/a	n/a	-999	0	4	[0, 0, 0]	n/a	0	0	0	n/a	n/a	0.0	0	0	0	catFR2	0	R1039M
518.753	1.6	630912	ORIENT	n/a	n/a	n/a	n/a	-999	0	4	[0, 0, 0]	n/a	0	0	0	n/a	n/a	0.0	0	0	0	catFR2	0	R1039M
522.603	1.6	632837	WORD	n/a	wordpools/wordpool_categorized_SP.txt	ABEJA	Insects	1	1	4	[0, 0, 0]	n/a	0	0	0	n/a	n/a	0.0	0	0	0	catFR2	0	R1039M
525.087	1.6	634078	WORD	n/a	wordpools/wordpool_categorized_SP.txt	MOSCA	Insects	2	1	4	[0, 0, 0]	n/a	0	0	0	n/a	n/a	0.0	0	0	0	catFR2	0	R1039M
527.704	1.6	635387	WORD	n/a	wordpools/wordpool_categorized_SP.txt	PARLANTE	Electronics	3	0	4	[0, 0, 0]	n/a	0	0	0	n/a	n/a	0.0	0	0	0	catFR2	0	R1039M
530.205	1.6	636637	WORD	n/a	wordpools/wordpool_categorized_SP.txt	CALCULADORA	Electronics	4	0	4	[0, 0, 0]	n/a	0	0	0	n/a	n/a	0.0	0	0	0	catFR2	0	R1039M
532.772	1.6	637921	WORD	n/a	wordpools/wordpool_categorized_SP.txt	RODILLA	BodyParts	5	1	4	[0, 0, 0]	n/a	0	0	0	n/a	n/a	0.0	0	0	0	catFR2	0	R1039M
535.372	1.6	639221	WORD	n/a	wordpools/wordpool_categorized_SP.txt	OREJA	BodyParts	6	1	4	[0, 0, 0]	n/a	0	0	0	n/a	n/a	0.0	0	0	0	catFR2	0	R1039M
537.905	1.6	640487	WORD	n/a	wordpools/wordpool_categorized_SP.txt	RADIO	Electronics	7	0	4	[0, 0, 0]	n/a	0	0	0	n/a	n/a	0.0	0	0	0	catFR2	0	R1039M
540.373	1.6	641721	WORD	n/a	wordpools/wordpool_categorized_SP.txt	ESTEREO	Electronics	8	0	4	[0, 0, 0]	n/a	0	0	0	n/a	n/a	0.0	0	0	0	catFR2	0	R1039M
542.889	1.6	642979	WORD	n/a	wordpools/wordpool_categorized_SP.txt	MARIPOSA	Insects	9	1	4	[0, 0, 0]	n/a	0	0	0	n/a	n/a	0.0	0	0	0	catFR2	0	R1039M
545.308	1.6	644188	WORD	n/a	wordpools/wordpool_categorized_SP.txt	ARANA	Insects	10	0	4	[0, 0, 0]	n/a	0	0	0	n/a	n/a	0.0	0	0	0	catFR2	0	R1039M
547.741	1.6	645405	WORD	n/a	wordpools/wordpool_categorized_SP.txt	CODO	BodyParts	11	0	4	[0, 0, 0]	n/a	0	0	0	n/a	n/a	0.0	0	0	0	catFR2	0	R1039M
550.209	1.6	646639	WORD	n/a	wordpools/wordpool_categorized_SP.txt	MANO	BodyParts	12	0	4	[0, 0, 0]	n/a	0	0	0	n/a	n/a	0.0	0	0	0	catFR2	0	R1039M
551.826	0.001	647447	DISTRACT_START	n/a	n/a	n/a	n/a	-999	0	4	[0, 0, 0]	n/a	0	0	0	n/a	n/a	0.0	0	0	0	catFR2	0	R1039M
551.827	0.015	647448	START	n/a	n/a	n/a	n/a	-999	0	4	[-999, -999, -999]	n/a	0	0	0	n/a	n/a	0.0	0	0	0	catFR2	0	R1039M
551.842	5.251	647455	PROB	5.222	n/a	n/a	n/a	-999	0	4	[7, 7, 1]	15	0	0	0	n/a	n/a	0.0	0	0	0	catFR2	0	R1039M
557.093	5.651	650081	PROB	5.619	n/a	n/a	n/a	-999	0	4	[2, 8, 3]	13	0	0	0	n/a	n/a	0.0	0	0	0	catFR2	0	R1039M
562.744	17.159	652906	PROB	17.159	n/a	n/a	n/a	-999	0	4	[7, 8, 8]	23	0	0	0	n/a	n/a	0.0	0	0	0	catFR2	0	R1039M
579.903	0.01	661485	STOP	n/a	n/a	n/a	n/a	-999	0	4	[-999, -999, -999]	n/a	0	0	0	n/a	n/a	0.0	0	0	0	catFR2	0	R1039M
579.913	1.069	661490	DISTRACT_END	n/a	n/a	n/a	n/a	-999	0	4	[0, 0, 0]	n/a	0	0	0	n/a	n/a	0.0	0	0	0	catFR2	0	R1039M
580.982	7.511	662025	REC_START	n/a	n/a	n/a	n/a	-999	0	4	[0, 0, 0]	n/a	0	0	0	n/a	n/a	0.0	0	0	0	catFR2	0	R1039M
588.493	0.877	665780	REC_WORD	7.511	n/a	MARIPOSA	Insects	9	1	4	[0, 0, 0]	n/a	0	0	0	n/a	n/a	0.0	0	0	0	catFR2	0	R1039M
589.37	1.661	666218	REC_WORD	8.388	n/a	ABEJA	Insects	1	1	4	[0, 0, 0]	n/a	0	0	0	n/a	n/a	0.0	0	0	0	catFR2	0	R1039M
591.031	9.342	667049	REC_WORD	10.049	n/a	MOSCA	Insects	2	1	4	[0, 0, 0]	n/a	0	0	0	n/a	n/a	0.0	0	0	0	catFR2	0	R1039M
600.373	1.412	671719	REC_WORD	19.391	n/a	OJO	n/a	-999	0	4	[0, 0, 0]	n/a	0	0	0	n/a	n/a	0.0	0	0	0	catFR2	0	R1039M
601.785	2.1	672425	REC_WORD	20.803	n/a	OREJA	BodyParts	6	1	4	[0, 0, 0]	n/a	0	0	0	n/a	n/a	0.0	0	0	0	catFR2	0	R1039M
603.885	3.498	673475	REC_WORD	22.903	n/a	RODILLA	BodyParts	5	1	4	[0, 0, 0]	n/a	0	0	0	n/a	n/a	0.0	0	0	0	catFR2	0	R1039M
607.383	3.609	675224	REC_WORD	26.401	n/a	PLAVIO	n/a	-999	0	4	[0, 0, 0]	n/a	0	0	0	n/a	n/a	0.0	0	0	0	catFR2	0	R1039M
610.992	25.583	677029	REC_END	n/a	n/a	n/a	n/a	-999	0	4	[0, 0, 0]	n/a	0	0	0	n/a	n/a	0.0	0	0	0	catFR2	0	R1039M
636.575	0.0	689820	TRIAL	n/a	n/a	n/a	n/a	-999	0	5	[0, 0, 0]	n/a	0	1	0	n/a	n/a	0.0	0	0	0	catFR2	0	R1039M
636.575	10.0	689820	COUNTDOWN_START	n/a	n/a	n/a	n/a	-999	0	5	[0, 0, 0]	n/a	0	1	0	n/a	n/a	0.0	0	0	0	catFR2	0	R1039M
647.003	0.008	695033	COUNTDOWN_END	n/a	n/a	n/a	n/a	-999	0	5	[0, 0, 0]	n/a	0	1	0	n/a	n/a	0.0	0	0	0	catFR2	0	R1039M
647.011	1.6	695037	ORIENT	n/a	n/a	n/a	n/a	-999	0	5	[0, 0, 0]	n/a	0	1	0	n/a	n/a	0.0	0	0	0	catFR2	0	R1039M
650.478	1.6	696771	WORD	n/a	wordpools/wordpool_categorized_SP.txt	CINTA	OfficeSupplies	1	0	5	[0, 0, 0]	n/a	0	1	0	n/a	n/a	0.0	0	0	0	catFR2	0	R1039M
653.012	1.6	698038	WORD	n/a	wordpools/wordpool_categorized_SP.txt	BOLIGRAFO	OfficeSupplies	2	0	5	[0, 0, 0]	n/a	0	1	0	n/a	n/a	0.0	0	0	0	catFR2	0	R1039M
655.211	4.6	699137	STIM_ON	n/a	n/a	n/a	n/a	-999	0	5	[0, 0, 0]	n/a	1	1	4600	RFG5	RFG6	3000.0	50	230	300	catFR2	0	R1039M
655.429	1.6	699246	WORD	n/a	wordpools/wordpool_categorized_SP.txt	GUITARRA	Instruments	3	0	5	[0, 0, 0]	n/a	1	1	4600	RFG5	RFG6	3000.0	50	230	300	catFR2	0	R1039M
658.012	1.6	700537	WORD	n/a	wordpools/wordpool_categorized_SP.txt	BAJO	Instruments	4	1	5	[0, 0, 0]	n/a	1	1	4600	RFG5	RFG6	3000.0	50	230	300	catFR2	0	R1039M
660.563	1.6	701813	WORD	n/a	wordpools/wordpool_categorized_SP.txt	CATRE	Furniture	5	0	5	[0, 0, 0]	n/a	0	1	0	n/a	n/a	0.0	0	0	0	catFR2	0	R1039M
662.946	1.6	703004	WORD	n/a	wordpools/wordpool_categorized_SP.txt	ESCRITORIO	Furniture	6	1	5	[0, 0, 0]	n/a	0	1	0	n/a	n/a	0.0	0	0	0	catFR2	0	R1039M
665.345	4.6	704204	STIM_ON	n/a	n/a	n/a	n/a	-999	0	5	[0, 0, 0]	n/a	1	1	4600	RFG5	RFG6	3000.0	50	230	300	catFR2	0	R1039M
665.547	1.6	704305	WORD	n/a	wordpools/wordpool_categorized_SP.txt	ENCUADERNADO	OfficeSupplies	7	0	5	[0, 0, 0]	n/a	1	1	4600	RFG5	RFG6	3000.0	50	230	300	catFR2	0	R1039M
667.981	1.6	705522	WORD	n/a	wordpools/wordpool_categorized_SP.txt	REGLA	OfficeSupplies	8	0	5	[0, 0, 0]	n/a	1	1	4600	RFG5	RFG6	3000.0	50	230	300	catFR2	0	R1039M
670.549	1.6	706806	WORD	n/a	wordpools/wordpool_categorized_SP.txt	BURO	Furniture	9	1	5	[0, 0, 0]	n/a	0	1	0	n/a	n/a	0.0	0	0	0	catFR2	0	R1039M
673.016	1.6	708039	WORD	n/a	wordpools/wordpool_categorized_SP.txt	BIBLIOTECA	Furniture	10	1	5	[0, 0, 0]	n/a	0	1	0	n/a	n/a	0.0	0	0	0	catFR2	0	R1039M
675.396	4.6	709229	STIM_ON	n/a	n/a	n/a	n/a	-999	0	5	[0, 0, 0]	n/a	1	1	4600	RFG5	RFG6	3000.0	50	230	300	catFR2	0	R1039M
675.599	1.6	709330	WORD	n/a	wordpools/wordpool_categorized_SP.txt	VIOLIN	Instruments	11	1	5	[0, 0, 0]	n/a	1	1	4600	RFG5	RFG6	3000.0	50	230	300	catFR2	0	R1039M
678.167	1.6	710614	WORD	n/a	wordpools/wordpool_categorized_SP.txt	TROMPETA	Instruments	12	1	5	[0, 0, 0]	n/a	1	1	4600	RFG5	RFG6	3000.0	50	230	300	catFR2	0	R1039M
679.784	0.001	711423	DISTRACT_START	n/a	n/a	n/a	n/a	-999	0	5	[0, 0, 0]	n/a	0	1	0	n/a	n/a	0.0	0	0	0	catFR2	0	R1039M
679.785	0.015	711423	START	n/a	n/a	n/a	n/a	-999	0	5	[-999, -999, -999]	n/a	0	1	0	n/a	n/a	0.0	0	0	0	catFR2	0	R1039M
679.8	10.902	711431	PROB	10.871	n/a	n/a	n/a	-999	0	5	[6, 8, 3]	17	0	1	0	n/a	n/a	0.0	0	0	0	catFR2	0	R1039M
690.702	6.217	716882	PROB	6.193	n/a	n/a	n/a	-999	0	5	[6, 4, 3]	13	0	1	0	n/a	n/a	0.0	0	0	0	catFR2	0	R1039M
696.919	9.065	719990	PROB	9.065	n/a	n/a	n/a	-999	0	5	[2, 5, 7]	14	0	1	0	n/a	n/a	0.0	0	0	0	catFR2	0	R1039M
705.984	0.005	724522	STOP	n/a	n/a	n/a	n/a	-999	0	5	[-999, -999, -999]	n/a	0	1	0	n/a	n/a	0.0	0	0	0	catFR2	0	R1039M
705.989	1.217	724525	DISTRACT_END	n/a	n/a	n/a	n/a	-999	0	5	[0, 0, 0]	n/a	0	1	0	n/a	n/a	0.0	0	0	0	catFR2	0	R1039M
707.206	0.639	725133	REC_START	n/a	n/a	n/a	n/a	-999	0	5	[0, 0, 0]	n/a	0	1	0	n/a	n/a	0.0	0	0	0	catFR2	0	R1039M
707.845	0.983	725453	REC_WORD	0.639	n/a	VIOLIN	Instruments	11	1	5	[0, 0, 0]	n/a	0	1	0	n/a	n/a	0.0	0	0	0	catFR2	0	R1039M
708.828	1.189	725944	REC_WORD	1.622	n/a	VIOLONCHELO	n/a	-999	0	5	[0, 0, 0]	n/a	0	1	0	n/a	n/a	0.0	0	0	0	catFR2	0	R1039M
710.017	2.215	726539	REC_WORD	2.811	n/a	BAJO	Instruments	4	1	5	[0, 0, 0]	n/a	0	1	0	n/a	n/a	0.0	0	0	0	catFR2	0	R1039M
712.232	3.56	727646	REC_WORD	5.026	n/a	TROMPETA	Instruments	12	1	5	[0, 0, 0]	n/a	0	1	0	n/a	n/a	0.0	0	0	0	catFR2	0	R1039M
715.792	1.99	729426	REC_WORD	8.586	n/a	BIBLIOTECA	Furniture	10	1	5	[0, 0, 0]	n/a	0	1	0	n/a	n/a	0.0	0	0	0	catFR2	0	R1039M
717.782	0.982	730421	REC_WORD	10.576	n/a	BURO	Furniture	9	1	5	[0, 0, 0]	n/a	0	1	0	n/a	n/a	0.0	0	0	0	catFR2	0	R1039M
718.764	8.17	730912	REC_WORD	11.558	n/a	ESCRITORIO	Furniture	6	1	5	[0, 0, 0]	n/a	0	1	0	n/a	n/a	0.0	0	0	0	catFR2	0	R1039M
726.934	4.324	734997	REC_WORD	19.728	n/a	BAJO	Instruments	4	1	5	[0, 0, 0]	n/a	0	1	0	n/a	n/a	0.0	0	0	0	catFR2	0	R1039M
731.258	5.96	737159	REC_WORD	24.052	n/a	TROMPETA	Instruments	12	1	5	[0, 0, 0]	n/a	0	1	0	n/a	n/a	0.0	0	0	0	catFR2	0	R1039M
737.218	20.564	740138	REC_END	n/a	n/a	n/a	n/a	-999	0	5	[0, 0, 0]	n/a	0	1	0	n/a	n/a	0.0	0	0	0	catFR2	0	R1039M
757.782	0.0	750420	TRIAL	n/a	n/a	n/a	n/a	-999	0	6	[0, 0, 0]	n/a	0	1	0	n/a	n/a	0.0	0	0	0	catFR2	0	R1039M
757.782	10.0	750420	COUNTDOWN_START	n/a	n/a	n/a	n/a	-999	0	6	[0, 0, 0]	n/a	0	1	0	n/a	n/a	0.0	0	0	0	catFR2	0	R1039M
768.21	0.007	755634	COUNTDOWN_END	n/a	n/a	n/a	n/a	-999	0	6	[0, 0, 0]	n/a	0	1	0	n/a	n/a	0.0	0	0	0	catFR2	0	R1039M
768.217	1.6	755637	ORIENT	n/a	n/a	n/a	n/a	-999	0	6	[0, 0, 0]	n/a	0	1	0	n/a	n/a	0.0	0	0	0	catFR2	0	R1039M
771.732	4.6	757394	STIM_ON	n/a	n/a	n/a	n/a	-999	0	6	[0, 0, 0]	n/a	1	1	4600	RFG5	RFG6	3000.0	50	230	300	catFR2	0	R1039M
771.95	1.6	757503	WORD	n/a	wordpools/wordpool_categorized_SP.txt	PARED	Building	1	1	6	[0, 0, 0]	n/a	1	1	4600	RFG5	RFG6	3000.0	50	230	300	catFR2	0	R1039M
774.485	1.6	758771	WORD	n/a	wordpools/wordpool_categorized_SP.txt	PISO	Building	2	1	6	[0, 0, 0]	n/a	1	1	4600	RFG5	RFG6	3000.0	50	230	300	catFR2	0	R1039M
777.069	1.6	760063	WORD	n/a	wordpools/wordpool_categorized_SP.txt	OSO	Zoo	3	1	6	[0, 0, 0]	n/a	0	1	0	n/a	n/a	0.0	0	0	0	catFR2	0	R1039M
779.586	1.6	761321	WORD	n/a	wordpools/wordpool_categorized_SP.txt	ORANGUTAN	Zoo	4	0	6	[0, 0, 0]	n/a	0	1	0	n/a	n/a	0.0	0	0	0	catFR2	0	R1039M
781.802	4.6	762429	STIM_ON	n/a	n/a	n/a	n/a	-999	0	6	[0, 0, 0]	n/a	1	1	4600	RFG5	RFG6	3000.0	50	230	300	catFR2	0	R1039M
782.003	1.6	762530	WORD	n/a	wordpools/wordpool_categorized_SP.txt	MUNECO	Toys	5	0	6	[0, 0, 0]	n/a	1	1	4600	RFG5	RFG6	3000.0	50	230	300	catFR2	0	R1039M
784.537	1.6	763797	WORD	n/a	wordpools/wordpool_categorized_SP.txt	ROMPECABEZAS	Toys	6	0	6	[0, 0, 0]	n/a	1	1	4600	RFG5	RFG6	3000.0	50	230	300	catFR2	0	R1039M
787.154	1.6	765105	WORD	n/a	wordpools/wordpool_categorized_SP.txt	VENTANA	Building	7	0	6	[0, 0, 0]	n/a	0	1	0	n/a	n/a	0.0	0	0	0	catFR2	0	R1039M
789.605	1.6	766330	WORD	n/a	wordpools/wordpool_categorized_SP.txt	TECHO	Building	8	1	6	[0, 0, 0]	n/a	0	1	0	n/a	n/a	0.0	0	0	0	catFR2	0	R1039M
791.868	4.6	767462	STIM_ON	n/a	n/a	n/a	n/a	-999	0	6	[0, 0, 0]	n/a	1	1	4600	RFG5	RFG6	3000.0	50	230	300	catFR2	0	R1039M
792.089	1.6	767572	WORD	n/a	wordpools/wordpool_categorized_SP.txt	CASITA	Toys	9	0	6	[0, 0, 0]	n/a	1	1	4600	RFG5	RFG6	3000.0	50	230	300	catFR2	0	R1039M
794.639	1.6	768847	WORD	n/a	wordpools/wordpool_categorized_SP.txt	BALERO	Toys	10	0	6	[0, 0, 0]	n/a	1	1	4600	RFG5	RFG6	3000.0	50	230	300	catFR2	0	R1039M
797.156	1.6	770106	WORD	n/a	wordpools/wordpool_categorized_SP.txt	TIGRE	Zoo	11	0	6	[0, 0, 0]	n/a	0	1	0	n/a	n/a	0.0	0	0	0	catFR2	0	R1039M
799.64	1.6	771348	WORD	n/a	wordpools/wordpool_categorized_SP.txt	PANDA	Zoo	12	1	6	[0, 0, 0]	n/a	0	1	0	n/a	n/a	0.0	0	0	0	catFR2	0	R1039M
801.257	0.001	772156	DISTRACT_START	n/a	n/a	n/a	n/a	-999	0	6	[0, 0, 0]	n/a	0	1	0	n/a	n/a	0.0	0	0	0	catFR2	0	R1039M
801.258	0.016	772157	START	n/a	n/a	n/a	n/a	-999	0	6	[-999, -999, -999]	n/a	0	1	0	n/a	n/a	0.0	0	0	0	catFR2	0	R1039M
801.274	5.001	772165	PROB	4.973	n/a	n/a	n/a	-999	0	6	[3, 3, 7]	13	0	1	0	n/a	n/a	0.0	0	0	0	catFR2	0	R1039M
806.275	6.251	774665	PROB	6.228	n/a	n/a	n/a	-999	0	6	[8, 3, 8]	19	0	1	0	n/a	n/a	0.0	0	0	0	catFR2	0	R1039M
812.526	12.408	777790	PROB	12.408	n/a	n/a	n/a	-999	0	6	[9, 3, 1]	13	0	1	0	n/a	n/a	0.0	0	0	0	catFR2	0	R1039M
824.934	0.01	783994	STOP	n/a	n/a	n/a	n/a	-999	0	6	[-999, -999, -999]	n/a	0	1	0	n/a	n/a	0.0	0	0	0	catFR2	0	R1039M
824.944	1.202	783999	DISTRACT_END	n/a	n/a	n/a	n/a	-999	0	6	[0, 0, 0]	n/a	0	1	0	n/a	n/a	0.0	0	0	0	catFR2	0	R1039M
826.146	1.403	784600	REC_START	n/a	n/a	n/a	n/a	-999	0	6	[0, 0, 0]	n/a	0	1	0	n/a	n/a	0.0	0	0	0	catFR2	0	R1039M
827.549	0.94	785301	REC_WORD	1.403	n/a	PARED	Building	1	1	6	[0, 0, 0]	n/a	0	1	0	n/a	n/a	0.0	0	0	0	catFR2	0	R1039M
828.489	0.608	785771	REC_WORD	2.343	n/a	TECHO	Building	8	1	6	[0, 0, 0]	n/a	0	1	0	n/a	n/a	0.0	0	0	0	catFR2	0	R1039M
829.097	7.265	786075	REC_WORD	2.951	n/a	PISO	Building	2	1	6	[0, 0, 0]	n/a	0	1	0	n/a	n/a	0.0	0	0	0	catFR2	0	R1039M
836.362	17.157	789708	REC_WORD	10.216	n/a	OSO	Zoo	3	1	6	[0, 0, 0]	n/a	0	1	0	n/a	n/a	0.0	0	0	0	catFR2	0	R1039M
853.519	1.863	798286	REC_WORD	27.373	n/a	CAMIL	n/a	-999	0	6	[0, 0, 0]	n/a	0	1	0	n/a	n/a	0.0	0	0	0	catFR2	0	R1039M
855.382	0.775	799217	REC_WORD	29.236	n/a	PANDA	Zoo	12	1	6	[0, 0, 0]	n/a	0	1	0	n/a	n/a	0.0	0	0	0	catFR2	0	R1039M
856.157	15.68	799605	REC_END	n/a	n/a	n/a	n/a	-999	0	6	[0, 0, 0]	n/a	0	1	0	n/a	n/a	0.0	0	0	0	catFR2	0	R1039M
871.837	10.0	807444	COUNTDOWN_START	n/a	n/a	n/a	n/a	-999	0	7	[0, 0, 0]	n/a	0	1	0	n/a	n/a	0.0	0	0	0	catFR2	0	R1039M
871.838	10.427	807445	TRIAL	n/a	n/a	n/a	n/a	-999	0	7	[0, 0, 0]	n/a	0	1	0	n/a	n/a	0.0	0	0	0	catFR2	0	R1039M
882.265	0.008	812658	COUNTDOWN_END	n/a	n/a	n/a	n/a	-999	0	7	[0, 0, 0]	n/a	0	1	0	n/a	n/a	0.0	0	0	0	catFR2	0	R1039M
882.273	1.6	812662	ORIENT	n/a	n/a	n/a	n/a	-999	0	7	[0, 0, 0]	n/a	0	1	0	n/a	n/a	0.0	0	0	0	catFR2	0	R1039M
885.873	1.6	814462	WORD	n/a	wordpools/wordpool_categorized_SP.txt	PLANCTON	OceanAnimals	1	0	7	[0, 0, 0]	n/a	0	1	0	n/a	n/a	0.0	0	0	0	catFR2	0	R1039M
888.274	1.6	815662	WORD	n/a	wordpools/wordpool_categorized_SP.txt	CANGREJO	OceanAnimals	2	1	7	[0, 0, 0]	n/a	0	1	0	n/a	n/a	0.0	0	0	0	catFR2	0	R1039M
890.531	4.6	816791	STIM_ON	n/a	n/a	n/a	n/a	-999	0	7	[0, 0, 0]	n/a	1	1	4600	RFG5	RFG6	3000.0	50	230	300	catFR2	0	R1039M
890.741	1.6	816896	WORD	n/a	wordpools/wordpool_categorized_SP.txt	AGUA	Beverages	3	1	7	[0, 0, 0]	n/a	1	1	4600	RFG5	RFG6	3000.0	50	230	300	catFR2	0	R1039M
893.308	1.6	818179	WORD	n/a	wordpools/wordpool_categorized_SP.txt	COLA	Beverages	4	0	7	[0, 0, 0]	n/a	1	1	4600	RFG5	RFG6	3000.0	50	230	300	catFR2	0	R1039M
895.792	1.6	819421	WORD	n/a	wordpools/wordpool_categorized_SP.txt	RIO	Landscapes	5	1	7	[0, 0, 0]	n/a	0	1	0	n/a	n/a	0.0	0	0	0	catFR2	0	R1039M
898.326	1.6	820688	WORD	n/a	wordpools/wordpool_categorized_SP.txt	CORRIENTE	Landscapes	6	0	7	[0, 0, 0]	n/a	0	1	0	n/a	n/a	0.0	0	0	0	catFR2	0	R1039M
900.696	4.6	821873	STIM_ON	n/a	n/a	n/a	n/a	-999	0	7	[0, 0, 0]	n/a	1	1	4600	RFG5	RFG6	3000.0	50	230	300	catFR2	0	R1039M
900.909	1.6	821980	WORD	n/a	wordpools/wordpool_categorized_SP.txt	CALAMAR	OceanAnimals	7	1	7	[0, 0, 0]	n/a	1	1	4600	RFG5	RFG6	3000.0	50	230	300	catFR2	0	R1039M
903.344	1.6	823197	WORD	n/a	wordpools/wordpool_categorized_SP.txt	MEDUSA	OceanAnimals	8	1	7	[0, 0, 0]	n/a	1	1	4600	RFG5	RFG6	3000.0	50	230	300	catFR2	0	R1039M
905.727	1.6	824388	WORD	n/a	wordpools/wordpool_categorized_SP.txt	OCEANO	Landscapes	9	1	7	[0, 0, 0]	n/a	0	1	0	n/a	n/a	0.0	0	0	0	catFR2	0	R1039M
908.144	1.6	825597	WORD	n/a	wordpools/wordpool_categorized_SP.txt	VALLE	Landscapes	10	0	7	[0, 0, 0]	n/a	0	1	0	n/a	n/a	0.0	0	0	0	catFR2	0	R1039M
910.36	4.6	826705	STIM_ON	n/a	n/a	n/a	n/a	-999	0	7	[0, 0, 0]	n/a	1	1	4600	RFG5	RFG6	3000.0	50	230	300	catFR2	0	R1039M
910.578	1.6	826814	WORD	n/a	wordpools/wordpool_categorized_SP.txt	RON	Beverages	11	0	7	[0, 0, 0]	n/a	1	1	4600	RFG5	RFG6	3000.0	50	230	300	catFR2	0	R1039M
913.045	1.6	828047	WORD	n/a	wordpools/wordpool_categorized_SP.txt	VINO	Beverages	12	0	7	[0, 0, 0]	n/a	1	1	4600	RFG5	RFG6	3000.0	50	230	300	catFR2	0	R1039M
914.662	0.001	828856	DISTRACT_START	n/a	n/a	n/a	n/a	-999	0	7	[0, 0, 0]	n/a	0	1	0	n/a	n/a	0.0	0	0	0	catFR2	0	R1039M
914.663	0.016	828856	START	n/a	n/a	n/a	n/a	-999	0	7	[-999, -999, -999]	n/a	0	1	0	n/a	n/a	0.0	0	0	0	catFR2	0	R1039M
914.679	28.337	828864	PROB	28.337	n/a	n/a	n/a	-999	0	7	[7, 7, 6]	20	0	1	0	n/a	n/a	0.0	0	0	0	catFR2	0	R1039M
943.016	0.019	843032	STOP	n/a	n/a	n/a	n/a	-999	0	7	[-999, -999, -999]	n/a	0	1	0	n/a	n/a	0.0	0	0	0	catFR2	0	R1039M
943.035	1.134	843041	DISTRACT_END	n/a	n/a	n/a	n/a	-999	0	7	[0, 0, 0]	n/a	0	1	0	n/a	n/a	0.0	0	0	0	catFR2	0	R1039M
944.169	2.149	843608	REC_START	n/a	n/a	n/a	n/a	-999	0	7	[0, 0, 0]	n/a	0	1	0	n/a	n/a	0.0	0	0	0	catFR2	0	R1039M
946.318	1.646	844683	REC_WORD	2.149	n/a	CANGREJO	OceanAnimals	2	1	7	[0, 0, 0]	n/a	0	1	0	n/a	n/a	0.0	0	0	0	catFR2	0	R1039M
947.964	1.107	845506	REC_WORD	3.795	n/a	AGUA	Beverages	3	1	7	[0, 0, 0]	n/a	0	1	0	n/a	n/a	0.0	0	0	0	catFR2	0	R1039M
949.071	1.627	846059	REC_WORD	4.902	n/a	OCEANO	Landscapes	9	1	7	[0, 0, 0]	n/a	0	1	0	n/a	n/a	0.0	0	0	0	catFR2	0	R1039M
950.698	4.383	846873	REC_WORD	6.529	n/a	RIO	Landscapes	5	1	7	[0, 0, 0]	n/a	0	1	0	n/a	n/a	0.0	0	0	0	catFR2	0	R1039M
955.081	2.256	849064	REC_WORD	10.912	n/a	CALAMAR	OceanAnimals	7	1	7	[0, 0, 0]	n/a	0	1	0	n/a	n/a	0.0	0	0	0	catFR2	0	R1039M
957.337	14.93	850192	REC_WORD	13.168	n/a	MEDUSA	OceanAnimals	8	1	7	[0, 0, 0]	n/a	0	1	0	n/a	n/a	0.0	0	0	0	catFR2	0	R1039M
972.267	1.912	857657	REC_WORD_VV	28.098	n/a	<>	n/a	-999	0	7	[0, 0, 0]	n/a	0	1	0	n/a	n/a	0.0	0	0	0	catFR2	0	R1039M
974.179	18.465	858613	REC_END	n/a	n/a	n/a	n/a	-999	0	7	[0, 0, 0]	n/a	0	1	0	n/a	n/a	0.0	0	0	0	catFR2	0	R1039M
992.644	0.0	867845	TRIAL	n/a	n/a	n/a	n/a	-999	0	8	[0, 0, 0]	n/a	0	1	0	n/a	n/a	0.0	0	0	0	catFR2	0	R1039M
992.644	10.0	867845	COUNTDOWN_START	n/a	n/a	n/a	n/a	-999	0	8	[0, 0, 0]	n/a	0	1	0	n/a	n/a	0.0	0	0	0	catFR2	0	R1039M
1003.072	0.007	873058	COUNTDOWN_END	n/a	n/a	n/a	n/a	-999	0	8	[0, 0, 0]	n/a	0	1	0	n/a	n/a	0.0	0	0	0	catFR2	0	R1039M
1003.079	1.6	873062	ORIENT	n/a	n/a	n/a	n/a	-999	0	8	[0, 0, 0]	n/a	0	1	0	n/a	n/a	0.0	0	0	0	catFR2	0	R1039M
1006.834	4.6	874939	STIM_ON	n/a	n/a	n/a	n/a	-999	0	8	[0, 0, 0]	n/a	1	1	4600	RFG5	RFG6	3000.0	50	230	300	catFR2	0	R1039M
1007.047	1.6	875046	WORD	n/a	wordpools/wordpool_categorized_SP.txt	TELEFONO	Electronics	1	0	8	[0, 0, 0]	n/a	1	1	4600	RFG5	RFG6	3000.0	50	230	300	catFR2	0	R1039M
1009.481	1.6	876263	WORD	n/a	wordpools/wordpool_categorized_SP.txt	COMPUTADOR	Electronics	2	1	8	[0, 0, 0]	n/a	1	1	4600	RFG5	RFG6	3000.0	50	230	300	catFR2	0	R1039M
1012.114	1.6	877579	WORD	n/a	wordpools/wordpool_categorized_SP.txt	BICICLETA	Vehicles	3	0	8	[0, 0, 0]	n/a	0	1	0	n/a	n/a	0.0	0	0	0	catFR2	0	R1039M
1014.615	1.6	878829	WORD	n/a	wordpools/wordpool_categorized_SP.txt	TREN	Vehicles	4	1	8	[0, 0, 0]	n/a	0	1	0	n/a	n/a	0.0	0	0	0	catFR2	0	R1039M
1017.0	4.6	880022	STIM_ON	n/a	n/a	n/a	n/a	-999	0	8	[0, 0, 0]	n/a	1	1	4600	RFG5	RFG6	3000.0	50	230	300	catFR2	0	R1039M
1017.216	1.6	880130	WORD	n/a	wordpools/wordpool_categorized_SP.txt	CABALLO	FarmAnimals	5	1	8	[0, 0, 0]	n/a	1	1	4600	RFG5	RFG6	3000.0	50	230	300	catFR2	0	R1039M
1019.633	1.6	881338	WORD	n/a	wordpools/wordpool_categorized_SP.txt	CABRA	FarmAnimals	6	0	8	[0, 0, 0]	n/a	1	1	4600	RFG5	RFG6	3000.0	50	230	300	catFR2	0	R1039M
1022.2	1.6	882622	WORD	n/a	wordpools/wordpool_categorized_SP.txt	IMPRESORA	Electronics	7	1	8	[0, 0, 0]	n/a	0	1	0	n/a	n/a	0.0	0	0	0	catFR2	0	R1039M
1024.634	1.6	883839	WORD	n/a	wordpools/wordpool_categorized_SP.txt	TELEVISION	Electronics	8	0	8	[0, 0, 0]	n/a	0	1	0	n/a	n/a	0.0	0	0	0	catFR2	0	R1039M
1026.83	4.6	884937	STIM_ON	n/a	n/a	n/a	n/a	-999	0	8	[0, 0, 0]	n/a	1	1	4600	RFG5	RFG6	3000.0	50	230	300	catFR2	0	R1039M
1027.034	1.6	885039	WORD	n/a	wordpools/wordpool_categorized_SP.txt	VACA	FarmAnimals	9	0	8	[0, 0, 0]	n/a	1	1	4600	RFG5	RFG6	3000.0	50	230	300	catFR2	0	R1039M
1029.534	1.6	886289	WORD	n/a	wordpools/wordpool_categorized_SP.txt	OVEJA	FarmAnimals	10	0	8	[0, 0, 0]	n/a	1	1	4600	RFG5	RFG6	3000.0	50	230	300	catFR2	0	R1039M
1032.018	1.6	887531	WORD	n/a	wordpools/wordpool_categorized_SP.txt	AUTO	Vehicles	11	1	8	[0, 0, 0]	n/a	0	1	0	n/a	n/a	0.0	0	0	0	catFR2	0	R1039M
1034.469	1.6	888756	WORD	n/a	wordpools/wordpool_categorized_SP.txt	AVION	Vehicles	12	1	8	[0, 0, 0]	n/a	0	1	0	n/a	n/a	0.0	0	0	0	catFR2	0	R1039M
1036.086	0.001	889564	DISTRACT_START	n/a	n/a	n/a	n/a	-999	0	8	[0, 0, 0]	n/a	0	1	0	n/a	n/a	0.0	0	0	0	catFR2	0	R1039M
1036.087	0.016	889565	START	n/a	n/a	n/a	n/a	-999	0	8	[-999, -999, -999]	n/a	0	1	0	n/a	n/a	0.0	0	0	0	catFR2	0	R1039M
1036.103	19.97	889573	PROB	19.945	n/a	n/a	n/a	-999	0	8	[6, 4, 4]	14	0	1	0	n/a	n/a	0.0	0	0	0	catFR2	0	R1039M
1056.073	5.838	899557	PROB	5.838	n/a	n/a	n/a	-999	0	8	[1, 3, 7]	11	0	1	0	n/a	n/a	0.0	0	0	0	catFR2	0	R1039M
1061.911	0.012	902476	STOP	n/a	n/a	n/a	n/a	-999	0	8	[-999, -999, -999]	n/a	0	1	0	n/a	n/a	0.0	0	0	0	catFR2	0	R1039M
1061.923	1.169	902482	DISTRACT_END	n/a	n/a	n/a	n/a	-999	0	8	[0, 0, 0]	n/a	0	1	0	n/a	n/a	0.0	0	0	0	catFR2	0	R1039M
1063.092	2.99	903067	REC_START	n/a	n/a	n/a	n/a	-999	0	8	[0, 0, 0]	n/a	0	1	0	n/a	n/a	0.0	0	0	0	catFR2	0	R1039M
1066.082	1.411	904562	REC_WORD	2.99	n/a	COMPUTADOR	Electronics	2	1	8	[0, 0, 0]	n/a	0	1	0	n/a	n/a	0.0	0	0	0	catFR2	0	R1039M
1067.493	3.148	905267	REC_WORD	4.401	n/a	IMPRESORA	Electronics	7	1	8	[0, 0, 0]	n/a	0	1	0	n/a	n/a	0.0	0	0	0	catFR2	0	R1039M
1070.641	0.628	906841	REC_WORD	7.549	n/a	AVION	Vehicles	12	1	8	[0, 0, 0]	n/a	0	1	0	n/a	n/a	0.0	0	0	0	catFR2	0	R1039M
1071.269	3.158	907155	REC_WORD	8.177	n/a	CARAVO	n/a	-999	0	8	[0, 0, 0]	n/a	0	1	0	n/a	n/a	0.0	0	0	0	catFR2	0	R1039M
1074.427	4.095	908734	REC_WORD	11.335	n/a	CABALLO	FarmAnimals	5	1	8	[0, 0, 0]	n/a	0	1	0	n/a	n/a	0.0	0	0	0	catFR2	0	R1039M
1078.522	5.258	910781	REC_WORD	15.43	n/a	TREN	Vehicles	4	1	8	[0, 0, 0]	n/a	0	1	0	n/a	n/a	0.0	0	0	0	catFR2	0	R1039M
1083.78	3.959	913410	REC_WORD	20.688	n/a	AUTO	Vehicles	11	1	8	[0, 0, 0]	n/a	0	1	0	n/a	n/a	0.0	0	0	0	catFR2	0	R1039M
1087.739	1.19	915390	REC_WORD	24.647	n/a	RADIO	n/a	-999	0	8	[0, 0, 0]	n/a	0	1	0	n/a	n/a	0.0	0	0	0	catFR2	0	R1039M
1088.929	4.174	915985	REC_WORD	25.837	n/a	ESTEREO	n/a	-999	0	8	[0, 0, 0]	n/a	0	1	0	n/a	n/a	0.0	0	0	0	catFR2	0	R1039M
1093.103	85.144	918071	REC_END	n/a	n/a	n/a	n/a	-999	0	8	[0, 0, 0]	n/a	0	1	0	n/a	n/a	0.0	0	0	0	catFR2	0	R1039M
1178.247	0.0	960641	TRIAL	n/a	n/a	n/a	n/a	-999	0	9	[0, 0, 0]	n/a	0	1	0	n/a	n/a	0.0	0	0	0	catFR2	0	R1039M
1178.247	10.0	960641	COUNTDOWN_START	n/a	n/a	n/a	n/a	-999	0	9	[0, 0, 0]	n/a	0	1	0	n/a	n/a	0.0	0	0	0	catFR2	0	R1039M
1188.675	0.007	965855	COUNTDOWN_END	n/a	n/a	n/a	n/a	-999	0	9	[0, 0, 0]	n/a	0	1	0	n/a	n/a	0.0	0	0	0	catFR2	0	R1039M
1188.682	1.6	965858	ORIENT	n/a	n/a	n/a	n/a	-999	0	9	[0, 0, 0]	n/a	0	1	0	n/a	n/a	0.0	0	0	0	catFR2	0	R1039M
1192.283	4.6	967659	STIM_ON	n/a	n/a	n/a	n/a	-999	0	9	[0, 0, 0]	n/a	1	1	4600	RFG5	RFG6	3000.0	50	230	300	catFR2	0	R1039M
1192.499	1.6	967767	WORD	n/a	wordpools/wordpool_categorized_SP.txt	BANJO	Instruments	1	0	9	[0, 0, 0]	n/a	1	1	4600	RFG5	RFG6	3000.0	50	230	300	catFR2	0	R1039M
1194.967	1.6	969001	WORD	n/a	wordpools/wordpool_categorized_SP.txt	VIOLONCHELO	Instruments	2	1	9	[0, 0, 0]	n/a	1	1	4600	RFG5	RFG6	3000.0	50	230	300	catFR2	0	R1039M
1197.367	1.6	970201	WORD	n/a	wordpools/wordpool_categorized_SP.txt	ESPATULA	KitchenTools	3	0	9	[0, 0, 0]	n/a	0	1	0	n/a	n/a	0.0	0	0	0	catFR2	0	R1039M
1199.801	1.6	971418	WORD	n/a	wordpools/wordpool_categorized_SP.txt	RALLADOR	KitchenTools	4	1	9	[0, 0, 0]	n/a	0	1	0	n/a	n/a	0.0	0	0	0	catFR2	0	R1039M
1201.978	4.6	972506	STIM_ON	n/a	n/a	n/a	n/a	-999	0	9	[0, 0, 0]	n/a	1	1	4600	RFG5	RFG6	3000.0	50	230	300	catFR2	0	R1039M
1202.185	1.6	972609	WORD	n/a	wordpools/wordpool_categorized_SP.txt	NUBE	Weather	5	0	9	[0, 0, 0]	n/a	1	1	4600	RFG5	RFG6	3000.0	50	230	300	catFR2	0	R1039M
1204.618	1.6	973826	WORD	n/a	wordpools/wordpool_categorized_SP.txt	HUMEDAD	Weather	6	0	9	[0, 0, 0]	n/a	1	1	4600	RFG5	RFG6	3000.0	50	230	300	catFR2	0	R1039M
1207.035	1.6	975034	WORD	n/a	wordpools/wordpool_categorized_SP.txt	ORGANO	Instruments	7	0	9	[0, 0, 0]	n/a	0	1	0	n/a	n/a	0.0	0	0	0	catFR2	0	R1039M
1209.486	1.6	976260	WORD	n/a	wordpools/wordpool_categorized_SP.txt	PIANO	Instruments	8	0	9	[0, 0, 0]	n/a	0	1	0	n/a	n/a	0.0	0	0	0	catFR2	0	R1039M
1211.758	4.6	977396	STIM_ON	n/a	n/a	n/a	n/a	-999	0	9	[0, 0, 0]	n/a	1	1	4600	RFG5	RFG6	3000.0	50	230	300	catFR2	0	R1039M
1211.97	1.6	977502	WORD	n/a	wordpools/wordpool_categorized_SP.txt	LLOVIZNA	Weather	9	0	9	[0, 0, 0]	n/a	1	1	4600	RFG5	RFG6	3000.0	50	230	300	catFR2	0	R1039M
1214.454	1.6	978744	WORD	n/a	wordpools/wordpool_categorized_SP.txt	LLUVIA	Weather	10	0	9	[0, 0, 0]	n/a	1	1	4600	RFG5	RFG6	3000.0	50	230	300	catFR2	0	R1039M
1216.887	1.6	979960	WORD	n/a	wordpools/wordpool_categorized_SP.txt	ESCURRIDOR	KitchenTools	11	1	9	[0, 0, 0]	n/a	0	1	0	n/a	n/a	0.0	0	0	0	catFR2	0	R1039M
1219.305	1.6	981169	WORD	n/a	wordpools/wordpool_categorized_SP.txt	CUCHARON	KitchenTools	12	1	9	[0, 0, 0]	n/a	0	1	0	n/a	n/a	0.0	0	0	0	catFR2	0	R1039M
1220.921	0.001	981977	DISTRACT_START	n/a	n/a	n/a	n/a	-999	0	9	[0, 0, 0]	n/a	0	1	0	n/a	n/a	0.0	0	0	0	catFR2	0	R1039M
1220.922	0.015	981977	START	n/a	n/a	n/a	n/a	-999	0	9	[-999, -999, -999]	n/a	0	1	0	n/a	n/a	0.0	0	0	0	catFR2	0	R1039M
1220.937	10.27	981985	PROB	10.239	n/a	n/a	n/a	-999	0	9	[8, 2, 5]	15	0	1	0	n/a	n/a	0.0	0	0	0	catFR2	0	R1039M
1231.207	15.945	987120	PROB	15.945	n/a	n/a	n/a	-999	0	9	[7, 4, 5]	16	0	1	0	n/a	n/a	0.0	0	0	0	catFR2	0	R1039M
1247.152	0.008	995092	STOP	n/a	n/a	n/a	n/a	-999	0	9	[-999, -999, -999]	n/a	0	1	0	n/a	n/a	0.0	0	0	0	catFR2	0	R1039M
1247.16	1.184	995096	DISTRACT_END	n/a	n/a	n/a	n/a	-999	0	9	[0, 0, 0]	n/a	0	1	0	n/a	n/a	0.0	0	0	0	catFR2	0	R1039M
1248.344	2.255	995688	REC_START	n/a	n/a	n/a	n/a	-999	0	9	[0, 0, 0]	n/a	0	1	0	n/a	n/a	0.0	0	0	0	catFR2	0	R1039M
1250.599	0.852	996815	REC_WORD	2.255	n/a	VIOLONCHELO	Instruments	2	1	9	[0, 0, 0]	n/a	0	1	0	n/a	n/a	0.0	0	0	0	catFR2	0	R1039M
1251.451	6.621	997241	REC_WORD	3.107	n/a	ESCURRIDOR	KitchenTools	11	1	9	[0, 0, 0]	n/a	0	1	0	n/a	n/a	0.0	0	0	0	catFR2	0	R1039M
1258.072	6.887	1000552	REC_WORD	9.728	n/a	BAJO	n/a	-999	0	9	[0, 0, 0]	n/a	0	1	0	n/a	n/a	0.0	0	0	0	catFR2	0	R1039M
1264.959	9.243	1003995	REC_WORD	16.615	n/a	RALLADOR	KitchenTools	4	1	9	[0, 0, 0]	n/a	0	1	0	n/a	n/a	0.0	0	0	0	catFR2	0	R1039M
1274.202	4.153	1008616	REC_WORD	25.858	n/a	CUCHARON	KitchenTools	12	1	9	[0, 0, 0]	n/a	0	1	0	n/a	n/a	0.0	0	0	0	catFR2	0	R1039M
1278.355	6.712	1010692	REC_END	n/a	n/a	n/a	n/a	-999	0	9	[0, 0, 0]	n/a	0	1	0	n/a	n/a	0.0	0	0	0	catFR2	0	R1039M
1285.067	0.0	1014048	TRIAL	n/a	n/a	n/a	n/a	-999	0	10	[0, 0, 0]	n/a	0	1	0	n/a	n/a	0.0	0	0	0	catFR2	0	R1039M
1285.067	10.0	1014048	COUNTDOWN_START	n/a	n/a	n/a	n/a	-999	0	10	[0, 0, 0]	n/a	0	1	0	n/a	n/a	0.0	0	0	0	catFR2	0	R1039M
1295.495	0.008	1019262	COUNTDOWN_END	n/a	n/a	n/a	n/a	-999	0	10	[0, 0, 0]	n/a	0	1	0	n/a	n/a	0.0	0	0	0	catFR2	0	R1039M
1295.503	1.6	1019266	ORIENT	n/a	n/a	n/a	n/a	-999	0	10	[0, 0, 0]	n/a	0	1	0	n/a	n/a	0.0	0	0	0	catFR2	0	R1039M
1299.067	4.6	1021048	STIM_ON	n/a	n/a	n/a	n/a	-999	0	10	[0, 0, 0]	n/a	1	1	4600	RFG5	RFG6	3000.0	50	230	300	catFR2	0	R1039M
1299.27	1.6	1021149	WORD	n/a	wordpools/wordpool_categorized_SP.txt	AUDIFONOS	Electronics	1	0	10	[0, 0, 0]	n/a	1	1	4600	RFG5	RFG6	3000.0	50	230	300	catFR2	0	R1039M
1301.771	1.6	1022400	WORD	n/a	wordpools/wordpool_categorized_SP.txt	TABLETA	Electronics	2	0	10	[0, 0, 0]	n/a	1	1	4600	RFG5	RFG6	3000.0	50	230	300	catFR2	0	R1039M
1304.154	1.6	1023591	WORD	n/a	wordpools/wordpool_categorized_SP.txt	BLOQUE	Toys	3	0	10	[0, 0, 0]	n/a	0	1	0	n/a	n/a	0.0	0	0	0	catFR2	0	R1039M
1306.738	1.6	1024883	WORD	n/a	wordpools/wordpool_categorized_SP.txt	FUTBOL	Toys	4	0	10	[0, 0, 0]	n/a	0	1	0	n/a	n/a	0.0	0	0	0	catFR2	0	R1039M
1308.916	4.6	1025972	STIM_ON	n/a	n/a	n/a	n/a	-999	0	10	[0, 0, 0]	n/a	1	1	4600	RFG5	RFG6	3000.0	50	230	300	catFR2	0	R1039M
1309.122	1.6	1026075	WORD	n/a	wordpools/wordpool_categorized_SP.txt	TRINQUETE	Tools	5	0	10	[0, 0, 0]	n/a	1	1	4600	RFG5	RFG6	3000.0	50	230	300	catFR2	0	R1039M
1311.589	1.6	1027309	WORD	n/a	wordpools/wordpool_categorized_SP.txt	ALICATES	Tools	6	0	10	[0, 0, 0]	n/a	1	1	4600	RFG5	RFG6	3000.0	50	230	300	catFR2	0	R1039M
1314.19	1.6	1028609	WORD	n/a	wordpools/wordpool_categorized_SP.txt	BALONCESTO	Toys	7	1	10	[0, 0, 0]	n/a	0	1	0	n/a	n/a	0.0	0	0	0	catFR2	0	R1039M
1316.723	1.6	1029875	WORD	n/a	wordpools/wordpool_categorized_SP.txt	BEISBOL	Toys	8	1	10	[0, 0, 0]	n/a	0	1	0	n/a	n/a	0.0	0	0	0	catFR2	0	R1039M
1318.952	4.6	1030990	STIM_ON	n/a	n/a	n/a	n/a	-999	0	10	[0, 0, 0]	n/a	1	1	4600	RFG5	RFG6	3000.0	50	230	300	catFR2	0	R1039M
1319.157	1.6	1031092	WORD	n/a	wordpools/wordpool_categorized_SP.txt	ESCANER	Electronics	9	0	10	[0, 0, 0]	n/a	1	1	4600	RFG5	RFG6	3000.0	50	230	300	catFR2	0	R1039M
1321.674	1.6	1032351	WORD	n/a	wordpools/wordpool_categorized_SP.txt	MICROONDAS	Electronics	10	0	10	[0, 0, 0]	n/a	1	1	4600	RFG5	RFG6	3000.0	50	230	300	catFR2	0	R1039M
1324.158	1.6	1033593	WORD	n/a	wordpools/wordpool_categorized_SP.txt	LIJADORA	Tools	11	0	10	[0, 0, 0]	n/a	0	1	0	n/a	n/a	0.0	0	0	0	catFR2	0	R1039M
1326.609	1.6	1034818	WORD	n/a	wordpools/wordpool_categorized_SP.txt	DESTORNILLADOR	Tools	12	0	10	[0, 0, 0]	n/a	0	1	0	n/a	n/a	0.0	0	0	0	catFR2	0	R1039M
1328.226	0.001	1035627	DISTRACT_START	n/a	n/a	n/a	n/a	-999	0	10	[0, 0, 0]	n/a	0	1	0	n/a	n/a	0.0	0	0	0	catFR2	0	R1039M
1328.227	0.015	1035627	START	n/a	n/a	n/a	n/a	-999	0	10	[-999, -999, -999]	n/a	0	1	0	n/a	n/a	0.0	0	0	0	catFR2	0	R1039M
1328.242	11.769	1035635	PROB	11.742	n/a	n/a	n/a	-999	0	10	[6, 8, 3]	17	0	1	0	n/a	n/a	0.0	0	0	0	catFR2	0	R1039M
1340.011	4.985	1041519	PROB	4.957	n/a	n/a	n/a	-999	0	10	[5, 5, 4]	14	0	1	0	n/a	n/a	0.0	0	0	0	catFR2	0	R1039M
1344.996	10.58	1044011	PROB	10.58	n/a	n/a	n/a	-999	0	10	[7, 9, 8]	24	0	1	0	n/a	n/a	0.0	0	0	0	catFR2	0	R1039M
1355.576	0.005	1049301	STOP	n/a	n/a	n/a	n/a	-999	0	10	[-999, -999, -999]	n/a	0	1	0	n/a	n/a	0.0	0	0	0	catFR2	0	R1039M
1355.581	1.034	1049303	DISTRACT_END	n/a	n/a	n/a	n/a	-999	0	10	[0, 0, 0]	n/a	0	1	0	n/a	n/a	0.0	0	0	0	catFR2	0	R1039M
1356.615	0.733	1049820	REC_START	n/a	n/a	n/a	n/a	-999	0	10	[0, 0, 0]	n/a	0	1	0	n/a	n/a	0.0	0	0	0	catFR2	0	R1039M
1357.348	2.439	1050187	REC_WORD	0.733	n/a	ESCURRIDOR	n/a	-999	0	10	[0, 0, 0]	n/a	0	1	0	n/a	n/a	0.0	0	0	0	catFR2	0	R1039M
1359.787	1.816	1051406	REC_WORD	3.172	n/a	BALONCESTO	Toys	7	1	10	[0, 0, 0]	n/a	0	1	0	n/a	n/a	0.0	0	0	0	catFR2	0	R1039M
1361.603	25.027	1052314	REC_WORD	4.988	n/a	BEISBOL	Toys	8	1	10	[0, 0, 0]	n/a	0	1	0	n/a	n/a	0.0	0	0	0	catFR2	0	R1039M
1386.63	22.028	1064827	REC_END	n/a	n/a	n/a	n/a	-999	0	10	[0, 0, 0]	n/a	0	1	0	n/a	n/a	0.0	0	0	0	catFR2	0	R1039M
1408.658	0.0	1075841	TRIAL	n/a	n/a	n/a	n/a	-999	0	11	[0, 0, 0]	n/a	0	1	0	n/a	n/a	0.0	0	0	0	catFR2	0	R1039M
1408.658	10.0	1075841	COUNTDOWN_START	n/a	n/a	n/a	n/a	-999	0	11	[0, 0, 0]	n/a	0	1	0	n/a	n/a	0.0	0	0	0	catFR2	0	R1039M
1419.086	0.007	1081054	COUNTDOWN_END	n/a	n/a	n/a	n/a	-999	0	11	[0, 0, 0]	n/a	0	1	0	n/a	n/a	0.0	0	0	0	catFR2	0	R1039M
1419.093	1.6	1081058	ORIENT	n/a	n/a	n/a	n/a	-999	0	11	[0, 0, 0]	n/a	0	1	0	n/a	n/a	0.0	0	0	0	catFR2	0	R1039M
1422.687	4.6	1082855	STIM_ON	n/a	n/a	n/a	n/a	-999	0	11	[0, 0, 0]	n/a	1	1	4600	RFG5	RFG6	3000.0	50	230	300	catFR2	0	R1039M
1422.893	1.6	1082958	WORD	n/a	wordpools/wordpool_categorized_SP.txt	JEEP	Vehicles	1	0	11	[0, 0, 0]	n/a	1	1	4600	RFG5	RFG6	3000.0	50	230	300	catFR2	0	R1039M
1425.394	1.6	1084208	WORD	n/a	wordpools/wordpool_categorized_SP.txt	BOTE	Vehicles	2	0	11	[0, 0, 0]	n/a	1	1	4600	RFG5	RFG6	3000.0	50	230	300	catFR2	0	R1039M
1427.927	1.6	1085474	WORD	n/a	wordpools/wordpool_categorized_SP.txt	PUERTA	Building	3	0	11	[0, 0, 0]	n/a	0	1	0	n/a	n/a	0.0	0	0	0	catFR2	0	R1039M
1430.462	1.6	1086742	WORD	n/a	wordpools/wordpool_categorized_SP.txt	TEJADO	Building	4	0	11	[0, 0, 0]	n/a	0	1	0	n/a	n/a	0.0	0	0	0	catFR2	0	R1039M
1432.81	4.6	1087916	STIM_ON	n/a	n/a	n/a	n/a	-999	0	11	[0, 0, 0]	n/a	1	1	4600	RFG5	RFG6	3000.0	50	230	300	catFR2	0	R1039M
1433.012	1.6	1088017	WORD	n/a	wordpools/wordpool_categorized_SP.txt	SIDRA	Beverages	5	0	11	[0, 0, 0]	n/a	1	1	4600	RFG5	RFG6	3000.0	50	230	300	catFR2	0	R1039M
1435.48	1.6	1089251	WORD	n/a	wordpools/wordpool_categorized_SP.txt	JUGO	Beverages	6	0	11	[0, 0, 0]	n/a	1	1	4600	RFG5	RFG6	3000.0	50	230	300	catFR2	0	R1039M
1438.03	1.6	1090526	WORD	n/a	wordpools/wordpool_categorized_SP.txt	PASILLO	Building	7	1	11	[0, 0, 0]	n/a	0	1	0	n/a	n/a	0.0	0	0	0	catFR2	0	R1039M
1440.514	1.6	1091768	WORD	n/a	wordpools/wordpool_categorized_SP.txt	BANO	Building	8	0	11	[0, 0, 0]	n/a	0	1	0	n/a	n/a	0.0	0	0	0	catFR2	0	R1039M
1442.733	4.6	1092877	STIM_ON	n/a	n/a	n/a	n/a	-999	0	11	[0, 0, 0]	n/a	1	1	4600	RFG5	RFG6	3000.0	50	230	300	catFR2	0	R1039M
1442.947	1.6	1092984	WORD	n/a	wordpools/wordpool_categorized_SP.txt	MOTOCICLETA	Vehicles	9	0	11	[0, 0, 0]	n/a	1	1	4600	RFG5	RFG6	3000.0	50	230	300	catFR2	0	R1039M
1445.365	1.6	1094193	WORD	n/a	wordpools/wordpool_categorized_SP.txt	CAMION	Vehicles	10	0	11	[0, 0, 0]	n/a	1	1	4600	RFG5	RFG6	3000.0	50	230	300	catFR2	0	R1039M
1447.849	1.6	1095435	WORD	n/a	wordpools/wordpool_categorized_SP.txt	LECHE	Beverages	11	0	11	[0, 0, 0]	n/a	0	1	0	n/a	n/a	0.0	0	0	0	catFR2	0	R1039M
1450.399	1.6	1096710	WORD	n/a	wordpools/wordpool_categorized_SP.txt	TE	Beverages	12	0	11	[0, 0, 0]	n/a	0	1	0	n/a	n/a	0.0	0	0	0	catFR2	0	R1039M
1452.016	0.001	1097518	DISTRACT_START	n/a	n/a	n/a	n/a	-999	0	11	[0, 0, 0]	n/a	0	1	0	n/a	n/a	0.0	0	0	0	catFR2	0	R1039M
1452.017	0.016	1097519	START	n/a	n/a	n/a	n/a	-999	0	11	[-999, -999, -999]	n/a	0	1	0	n/a	n/a	0.0	0	0	0	catFR2	0	R1039M
1452.033	25.702	1097527	PROB	25.702	n/a	n/a	n/a	-999	0	11	[5, 9, 9]	23	0	1	0	n/a	n/a	0.0	0	0	0	catFR2	0	R1039M
1477.735	0.02	1110377	STOP	n/a	n/a	n/a	n/a	-999	0	11	[-999, -999, -999]	n/a	0	1	0	n/a	n/a	0.0	0	0	0	catFR2	0	R1039M
1477.755	1.2	1110387	DISTRACT_END	n/a	n/a	n/a	n/a	-999	0	11	[0, 0, 0]	n/a	0	1	0	n/a	n/a	0.0	0	0	0	catFR2	0	R1039M
1478.955	11.319	1110987	REC_START	n/a	n/a	n/a	n/a	-999	0	11	[0, 0, 0]	n/a	0	1	0	n/a	n/a	0.0	0	0	0	catFR2	0	R1039M
1490.274	0.661	1116646	REC_WORD	11.319	n/a	TECHO	n/a	-999	0	11	[0, 0, 0]	n/a	0	1	0	n/a	n/a	0.0	0	0	0	catFR2	0	R1039M
1490.935	1.561	1116977	REC_WORD	11.98	n/a	TEJA	n/a	-999	0	11	[0, 0, 0]	n/a	0	1	0	n/a	n/a	0.0	0	0	0	catFR2	0	R1039M
1492.496	15.526	1117757	REC_WORD	13.541	n/a	PASILLO	Building	7	1	11	[0, 0, 0]	n/a	0	1	0	n/a	n/a	0.0	0	0	0	catFR2	0	R1039M
1508.022	0.948	1125520	REC_WORD_VV	29.067	n/a	<>	n/a	-999	0	11	[0, 0, 0]	n/a	0	1	0	n/a	n/a	0.0	0	0	0	catFR2	0	R1039M
1508.97	92.609	1125994	REC_END	n/a	n/a	n/a	n/a	-999	0	11	[0, 0, 0]	n/a	0	1	0	n/a	n/a	0.0	0	0	0	catFR2	0	R1039M
1601.579	0.0	1172296	TRIAL	n/a	n/a	n/a	n/a	-999	0	12	[0, 0, 0]	n/a	0	1	0	n/a	n/a	0.0	0	0	0	catFR2	0	R1039M
1601.579	10.0	1172296	COUNTDOWN_START	n/a	n/a	n/a	n/a	-999	0	12	[0, 0, 0]	n/a	0	1	0	n/a	n/a	0.0	0	0	0	catFR2	0	R1039M
1612.007	0.007	1177510	COUNTDOWN_END	n/a	n/a	n/a	n/a	-999	0	12	[0, 0, 0]	n/a	0	1	0	n/a	n/a	0.0	0	0	0	catFR2	0	R1039M
1612.014	1.6	1177513	ORIENT	n/a	n/a	n/a	n/a	-999	0	12	[0, 0, 0]	n/a	0	1	0	n/a	n/a	0.0	0	0	0	catFR2	0	R1039M
1615.584	4.6	1179298	STIM_ON	n/a	n/a	n/a	n/a	-999	0	12	[0, 0, 0]	n/a	1	1	4600	RFG5	RFG6	3000.0	50	230	300	catFR2	0	R1039M
1615.798	1.6	1179405	WORD	n/a	wordpools/wordpool_categorized_SP.txt	CEDRO	Trees	1	0	12	[0, 0, 0]	n/a	1	1	4600	RFG5	RFG6	3000.0	50	230	300	catFR2	0	R1039M
1618.198	1.6	1180605	WORD	n/a	wordpools/wordpool_categorized_SP.txt	SAUCE	Trees	2	0	12	[0, 0, 0]	n/a	1	1	4600	RFG5	RFG6	3000.0	50	230	300	catFR2	0	R1039M
1620.649	1.6	1181830	WORD	n/a	wordpools/wordpool_categorized_SP.txt	APIO	Vegetables	3	1	12	[0, 0, 0]	n/a	0	1	0	n/a	n/a	0.0	0	0	0	catFR2	0	R1039M
1623.166	1.6	1183089	WORD	n/a	wordpools/wordpool_categorized_SP.txt	LECHUGA	Vegetables	4	1	12	[0, 0, 0]	n/a	0	1	0	n/a	n/a	0.0	0	0	0	catFR2	0	R1039M
1625.361	4.6	1184186	STIM_ON	n/a	n/a	n/a	n/a	-999	0	12	[0, 0, 0]	n/a	1	1	4600	RFG5	RFG6	3000.0	50	230	300	catFR2	0	R1039M
1625.566	1.6	1184289	WORD	n/a	wordpools/wordpool_categorized_SP.txt	FRISBEE	Toys	5	0	12	[0, 0, 0]	n/a	1	1	4600	RFG5	RFG6	3000.0	50	230	300	catFR2	0	R1039M
1628.05	1.6	1185531	WORD	n/a	wordpools/wordpool_categorized_SP.txt	CANICAS	Toys	6	0	12	[0, 0, 0]	n/a	1	1	4600	RFG5	RFG6	3000.0	50	230	300	catFR2	0	R1039M
1630.584	1.6	1186798	WORD	n/a	wordpools/wordpool_categorized_SP.txt	PEPINO	Vegetables	7	0	12	[0, 0, 0]	n/a	0	1	0	n/a	n/a	0.0	0	0	0	catFR2	0	R1039M
1633.035	1.6	1188023	WORD	n/a	wordpools/wordpool_categorized_SP.txt	CEBOLLA	Vegetables	8	1	12	[0, 0, 0]	n/a	0	1	0	n/a	n/a	0.0	0	0	0	catFR2	0	R1039M
1635.265	4.6	1189138	STIM_ON	n/a	n/a	n/a	n/a	-999	0	12	[0, 0, 0]	n/a	1	1	4600	RFG5	RFG6	3000.0	50	230	300	catFR2	0	R1039M
1635.469	1.6	1189240	WORD	n/a	wordpools/wordpool_categorized_SP.txt	CIPRES	Trees	9	0	12	[0, 0, 0]	n/a	1	1	4600	RFG5	RFG6	3000.0	50	230	300	catFR2	0	R1039M
1637.951	1.6	1190481	WORD	n/a	wordpools/wordpool_categorized_SP.txt	PERENNE	Trees	10	1	12	[0, 0, 0]	n/a	1	1	4600	RFG5	RFG6	3000.0	50	230	300	catFR2	0	R1039M
1640.436	1.6	1191723	WORD	n/a	wordpools/wordpool_categorized_SP.txt	BOLA	Toys	11	1	12	[0, 0, 0]	n/a	0	1	0	n/a	n/a	0.0	0	0	0	catFR2	0	R1039M
1643.053	1.6	1193032	WORD	n/a	wordpools/wordpool_categorized_SP.txt	BARBIE	Toys	12	0	12	[0, 0, 0]	n/a	0	1	0	n/a	n/a	0.0	0	0	0	catFR2	0	R1039M
1644.67	0.001	1193840	DISTRACT_START	n/a	n/a	n/a	n/a	-999	0	12	[0, 0, 0]	n/a	0	1	0	n/a	n/a	0.0	0	0	0	catFR2	0	R1039M
1644.671	0.016	1193841	START	n/a	n/a	n/a	n/a	-999	0	12	[-999, -999, -999]	n/a	0	1	0	n/a	n/a	0.0	0	0	0	catFR2	0	R1039M
1644.687	8.985	1193849	PROB	8.953	n/a	n/a	n/a	-999	0	12	[4, 7, 4]	15	0	1	0	n/a	n/a	0.0	0	0	0	catFR2	0	R1039M
1653.672	11.783	1198341	PROB	11.783	n/a	n/a	n/a	-999	0	12	[5, 8, 8]	21	0	1	0	n/a	n/a	0.0	0	0	0	catFR2	0	R1039M
1665.455	0.019	1204232	STOP	n/a	n/a	n/a	n/a	-999	0	12	[-999, -999, -999]	n/a	0	1	0	n/a	n/a	0.0	0	0	0	catFR2	0	R1039M
1665.474	1.134	1204242	DISTRACT_END	n/a	n/a	n/a	n/a	-999	0	12	[0, 0, 0]	n/a	0	1	0	n/a	n/a	0.0	0	0	0	catFR2	0	R1039M
1666.608	0.347	1204809	REC_START	n/a	n/a	n/a	n/a	-999	0	12	[0, 0, 0]	n/a	0	1	0	n/a	n/a	0.0	0	0	0	catFR2	0	R1039M
1666.955	1.077	1204982	REC_WORD	0.347	n/a	CEBOLLA	Vegetables	8	1	12	[0, 0, 0]	n/a	0	1	0	n/a	n/a	0.0	0	0	0	catFR2	0	R1039M
1668.032	0.924	1205521	REC_WORD	1.424	n/a	APIO	Vegetables	3	1	12	[0, 0, 0]	n/a	0	1	0	n/a	n/a	0.0	0	0	0	catFR2	0	R1039M
1668.956	5.923	1205983	REC_WORD	2.348	n/a	LECHUGA	Vegetables	4	1	12	[0, 0, 0]	n/a	0	1	0	n/a	n/a	0.0	0	0	0	catFR2	0	R1039M
1674.879	4.272	1208944	REC_WORD	8.271	n/a	BOLA	Toys	11	1	12	[0, 0, 0]	n/a	0	1	0	n/a	n/a	0.0	0	0	0	catFR2	0	R1039M
1679.151	16.826	1211080	REC_WORD	12.543	n/a	PERENNE	Trees	10	1	12	[0, 0, 0]	n/a	0	1	0	n/a	n/a	0.0	0	0	0	catFR2	0	R1039M
1695.977	0.647	1219492	REC_WORD	29.369	n/a	DULCE	n/a	-999	0	12	[0, 0, 0]	n/a	0	1	0	n/a	n/a	0.0	0	0	0	catFR2	0	R1039M
1696.624	24.244	1219816	REC_END	n/a	n/a	n/a	n/a	-999	0	12	[0, 0, 0]	n/a	0	1	0	n/a	n/a	0.0	0	0	0	catFR2	0	R1039M
1720.868	0.0	1231937	TRIAL	n/a	n/a	n/a	n/a	-999	0	13	[0, 0, 0]	n/a	0	1	0	n/a	n/a	0.0	0	0	0	catFR2	0	R1039M
1720.868	10.0	1231937	COUNTDOWN_START	n/a	n/a	n/a	n/a	-999	0	13	[0, 0, 0]	n/a	0	1	0	n/a	n/a	0.0	0	0	0	catFR2	0	R1039M
1731.296	0.007	1237151	COUNTDOWN_END	n/a	n/a	n/a	n/a	-999	0	13	[0, 0, 0]	n/a	0	1	0	n/a	n/a	0.0	0	0	0	catFR2	0	R1039M
1731.303	1.6	1237154	ORIENT	n/a	n/a	n/a	n/a	-999	0	13	[0, 0, 0]	n/a	0	1	0	n/a	n/a	0.0	0	0	0	catFR2	0	R1039M
1734.957	4.6	1238981	STIM_ON	n/a	n/a	n/a	n/a	-999	0	13	[0, 0, 0]	n/a	1	1	4600	RFG5	RFG6	3000.0	50	230	300	catFR2	0	R1039M
1735.171	1.6	1239088	WORD	n/a	wordpools/wordpool_categorized_SP.txt	COLADOR	KitchenTools	1	1	13	[0, 0, 0]	n/a	1	1	4600	RFG5	RFG6	3000.0	50	230	300	catFR2	0	R1039M
1737.721	1.6	1240363	WORD	n/a	wordpools/wordpool_categorized_SP.txt	CUCHARA	KitchenTools	2	1	13	[0, 0, 0]	n/a	1	1	4600	RFG5	RFG6	3000.0	50	230	300	catFR2	0	R1039M
1740.189	1.6	1241597	WORD	n/a	wordpools/wordpool_categorized_SP.txt	TORTUGA	OceanAnimals	3	0	13	[0, 0, 0]	n/a	0	1	0	n/a	n/a	0.0	0	0	0	catFR2	0	R1039M
1742.589	1.6	1242797	WORD	n/a	wordpools/wordpool_categorized_SP.txt	PEZ	OceanAnimals	4	0	13	[0, 0, 0]	n/a	0	1	0	n/a	n/a	0.0	0	0	0	catFR2	0	R1039M
1744.817	4.6	1243911	STIM_ON	n/a	n/a	n/a	n/a	-999	0	13	[0, 0, 0]	n/a	1	1	4600	RFG5	RFG6	3000.0	50	230	300	catFR2	0	R1039M
1745.023	1.6	1244014	WORD	n/a	wordpools/wordpool_categorized_SP.txt	ZANAHORIA	Vegetables	5	1	13	[0, 0, 0]	n/a	1	1	4600	RFG5	RFG6	3000.0	50	230	300	catFR2	0	R1039M
1747.423	1.6	1245214	WORD	n/a	wordpools/wordpool_categorized_SP.txt	ARVEJA	Vegetables	6	0	13	[0, 0, 0]	n/a	1	1	4600	RFG5	RFG6	3000.0	50	230	300	catFR2	0	R1039M
1749.874	1.6	1246439	WORD	n/a	wordpools/wordpool_categorized_SP.txt	BATIDOR	KitchenTools	7	0	13	[0, 0, 0]	n/a	0	1	0	n/a	n/a	0.0	0	0	0	catFR2	0	R1039M
1752.308	1.6	1247656	WORD	n/a	wordpools/wordpool_categorized_SP.txt	TENEDOR	KitchenTools	8	0	13	[0, 0, 0]	n/a	0	1	0	n/a	n/a	0.0	0	0	0	catFR2	0	R1039M
1754.688	4.6	1248846	STIM_ON	n/a	n/a	n/a	n/a	-999	0	13	[0, 0, 0]	n/a	1	1	4600	RFG5	RFG6	3000.0	50	230	300	catFR2	0	R1039M
1754.89	1.6	1248947	WORD	n/a	wordpools/wordpool_categorized_SP.txt	PAPA	Vegetables	9	0	13	[0, 0, 0]	n/a	1	1	4600	RFG5	RFG6	3000.0	50	230	300	catFR2	0	R1039M
1757.325	1.6	1250165	WORD	n/a	wordpools/wordpool_categorized_SP.txt	REPOLLO	Vegetables	10	1	13	[0, 0, 0]	n/a	1	1	4600	RFG5	RFG6	3000.0	50	230	300	catFR2	0	R1039M
1759.759	1.6	1251382	WORD	n/a	wordpools/wordpool_categorized_SP.txt	OSTRA	OceanAnimals	11	1	13	[0, 0, 0]	n/a	0	1	0	n/a	n/a	0.0	0	0	0	catFR2	0	R1039M
1762.293	1.6	1252649	WORD	n/a	wordpools/wordpool_categorized_SP.txt	DELFIN	OceanAnimals	12	0	13	[0, 0, 0]	n/a	0	1	0	n/a	n/a	0.0	0	0	0	catFR2	0	R1039M
1763.909	0.001	1253457	DISTRACT_START	n/a	n/a	n/a	n/a	-999	0	13	[0, 0, 0]	n/a	0	1	0	n/a	n/a	0.0	0	0	0	catFR2	0	R1039M
1763.91	0.016	1253457	START	n/a	n/a	n/a	n/a	-999	0	13	[-999, -999, -999]	n/a	0	1	0	n/a	n/a	0.0	0	0	0	catFR2	0	R1039M
1763.926	8.502	1253465	PROB	8.474	n/a	n/a	n/a	-999	0	13	[1, 4, 9]	14	0	1	0	n/a	n/a	0.0	0	0	0	catFR2	0	R1039M
1772.428	10.636	1257716	PROB	10.612	n/a	n/a	n/a	-999	0	13	[3, 5, 7]	15	0	1	0	n/a	n/a	0.0	0	0	0	catFR2	0	R1039M
1783.064	3.343	1263034	PROB	3.343	n/a	n/a	n/a	-999	0	13	[1, 4, 4]	9	0	1	0	n/a	n/a	0.0	0	0	0	catFR2	0	R1039M
1786.407	0.007	1264705	STOP	n/a	n/a	n/a	n/a	-999	0	13	[-999, -999, -999]	n/a	0	1	0	n/a	n/a	0.0	0	0	0	catFR2	0	R1039M
1786.414	1.084	1264708	DISTRACT_END	n/a	n/a	n/a	n/a	-999	0	13	[0, 0, 0]	n/a	0	1	0	n/a	n/a	0.0	0	0	0	catFR2	0	R1039M
1787.498	1.33	1265250	REC_START	n/a	n/a	n/a	n/a	-999	0	13	[0, 0, 0]	n/a	0	1	0	n/a	n/a	0.0	0	0	0	catFR2	0	R1039M
1788.828	1.547	1265915	REC_WORD	1.33	n/a	OSTRA	OceanAnimals	11	1	13	[0, 0, 0]	n/a	0	1	0	n/a	n/a	0.0	0	0	0	catFR2	0	R1039M
1790.375	2.689	1266689	REC_WORD	2.877	n/a	REPOLLO	Vegetables	10	1	13	[0, 0, 0]	n/a	0	1	0	n/a	n/a	0.0	0	0	0	catFR2	0	R1039M
1793.064	5.491	1268033	REC_WORD	5.566	n/a	ZANAHORIA	Vegetables	5	1	13	[0, 0, 0]	n/a	0	1	0	n/a	n/a	0.0	0	0	0	catFR2	0	R1039M
1798.555	4.387	1270779	REC_WORD	11.057	n/a	COLADOR	KitchenTools	1	1	13	[0, 0, 0]	n/a	0	1	0	n/a	n/a	0.0	0	0	0	catFR2	0	R1039M
1802.942	9.547	1272972	REC_WORD	15.444	n/a	CUCHARA	KitchenTools	2	1	13	[0, 0, 0]	n/a	0	1	0	n/a	n/a	0.0	0	0	0	catFR2	0	R1039M
1812.489	5.021	1277745	REC_WORD	24.991	n/a	ECUADOR	n/a	-999	0	13	[0, 0, 0]	n/a	0	1	0	n/a	n/a	0.0	0	0	0	catFR2	0	R1039M
1817.51	25.148	1280256	REC_END	n/a	n/a	n/a	n/a	-999	0	13	[0, 0, 0]	n/a	0	1	0	n/a	n/a	0.0	0	0	0	catFR2	0	R1039M
1842.658	10.0	1292829	COUNTDOWN_START	n/a	n/a	n/a	n/a	-999	0	14	[0, 0, 0]	n/a	0	0	0	n/a	n/a	0.0	0	0	0	catFR2	0	R1039M
1842.659	10.427	1292829	TRIAL	n/a	n/a	n/a	n/a	-999	0	14	[0, 0, 0]	n/a	0	0	0	n/a	n/a	0.0	0	0	0	catFR2	0	R1039M
1853.086	0.008	1298043	COUNTDOWN_END	n/a	n/a	n/a	n/a	-999	0	14	[0, 0, 0]	n/a	0	0	0	n/a	n/a	0.0	0	0	0	catFR2	0	R1039M
1853.094	1.6	1298047	ORIENT	n/a	n/a	n/a	n/a	-999	0	14	[0, 0, 0]	n/a	0	0	0	n/a	n/a	0.0	0	0	0	catFR2	0	R1039M
1856.678	1.6	1299839	WORD	n/a	wordpools/wordpool_categorized_SP.txt	TULIPAN	Flowers	1	0	14	[0, 0, 0]	n/a	0	0	0	n/a	n/a	0.0	0	0	0	catFR2	0	R1039M
1859.295	1.6	1301147	WORD	n/a	wordpools/wordpool_categorized_SP.txt	MARGARITA	Flowers	2	0	14	[0, 0, 0]	n/a	0	0	0	n/a	n/a	0.0	0	0	0	catFR2	0	R1039M
1861.695	1.6	1302347	WORD	n/a	wordpools/wordpool_categorized_SP.txt	NARIZ	BodyParts	3	1	14	[0, 0, 0]	n/a	0	0	0	n/a	n/a	0.0	0	0	0	catFR2	0	R1039M
1864.129	1.6	1303564	WORD	n/a	wordpools/wordpool_categorized_SP.txt	PIERNA	BodyParts	4	0	14	[0, 0, 0]	n/a	0	0	0	n/a	n/a	0.0	0	0	0	catFR2	0	R1039M
1866.596	1.6	1304797	WORD	n/a	wordpools/wordpool_categorized_SP.txt	ELEFANTE	Zoo	5	0	14	[0, 0, 0]	n/a	0	0	0	n/a	n/a	0.0	0	0	0	catFR2	0	R1039M
1869.13	1.6	1306064	WORD	n/a	wordpools/wordpool_categorized_SP.txt	GUEPARDO	Zoo	6	0	14	[0, 0, 0]	n/a	0	0	0	n/a	n/a	0.0	0	0	0	catFR2	0	R1039M
1871.664	1.6	1307331	WORD	n/a	wordpools/wordpool_categorized_SP.txt	BRAZO	BodyParts	7	0	14	[0, 0, 0]	n/a	0	0	0	n/a	n/a	0.0	0	0	0	catFR2	0	R1039M
1874.148	1.6	1308573	WORD	n/a	wordpools/wordpool_categorized_SP.txt	PIE	BodyParts	8	1	14	[0, 0, 0]	n/a	0	0	0	n/a	n/a	0.0	0	0	0	catFR2	0	R1039M
1876.715	1.6	1309857	WORD	n/a	wordpools/wordpool_categorized_SP.txt	LIRIO	Flowers	9	0	14	[0, 0, 0]	n/a	0	0	0	n/a	n/a	0.0	0	0	0	catFR2	0	R1039M
1879.199	1.6	1311098	WORD	n/a	wordpools/wordpool_categorized_SP.txt	NARCISO	Flowers	10	1	14	[0, 0, 0]	n/a	0	0	0	n/a	n/a	0.0	0	0	0	catFR2	0	R1039M
1881.616	1.6	1312307	WORD	n/a	wordpools/wordpool_categorized_SP.txt	LEON	Zoo	11	0	14	[0, 0, 0]	n/a	0	0	0	n/a	n/a	0.0	0	0	0	catFR2	0	R1039M
1884.166	1.6	1313582	WORD	n/a	wordpools/wordpool_categorized_SP.txt	MONO	Zoo	12	0	14	[0, 0, 0]	n/a	0	0	0	n/a	n/a	0.0	0	0	0	catFR2	0	R1039M
1885.783	0.001	1314390	DISTRACT_START	n/a	n/a	n/a	n/a	-999	0	14	[0, 0, 0]	n/a	0	0	0	n/a	n/a	0.0	0	0	0	catFR2	0	R1039M
1885.784	0.016	1314391	START	n/a	n/a	n/a	n/a	-999	0	14	[-999, -999, -999]	n/a	0	0	0	n/a	n/a	0.0	0	0	0	catFR2	0	R1039M
1885.8	7.318	1314399	PROB	7.295	n/a	n/a	n/a	-999	0	14	[7, 2, 6]	15	0	0	0	n/a	n/a	0.0	0	0	0	catFR2	0	R1039M
1893.118	10.586	1318058	PROB	10.554	n/a	n/a	n/a	-999	0	14	[2, 5, 8]	15	0	0	0	n/a	n/a	0.0	0	0	0	catFR2	0	R1039M
1903.704	6.952	1323350	PROB	6.952	n/a	n/a	n/a	-999	0	14	[6, 2, 2]	10	0	0	0	n/a	n/a	0.0	0	0	0	catFR2	0	R1039M
1910.656	0.016	1326826	STOP	n/a	n/a	n/a	n/a	-999	0	14	[-999, -999, -999]	n/a	0	0	0	n/a	n/a	0.0	0	0	0	catFR2	0	R1039M
1910.672	1.167	1326834	DISTRACT_END	n/a	n/a	n/a	n/a	-999	0	14	[0, 0, 0]	n/a	0	0	0	n/a	n/a	0.0	0	0	0	catFR2	0	R1039M
1911.839	2.133	1327418	REC_START	n/a	n/a	n/a	n/a	-999	0	14	[0, 0, 0]	n/a	0	0	0	n/a	n/a	0.0	0	0	0	catFR2	0	R1039M
1913.972	0.83	1328484	REC_WORD	2.133	n/a	NARCISO	Flowers	10	1	14	[0, 0, 0]	n/a	0	0	0	n/a	n/a	0.0	0	0	0	catFR2	0	R1039M
1914.802	2.278	1328899	REC_WORD	2.963	n/a	GUACAMAYA	n/a	-999	0	14	[0, 0, 0]	n/a	0	0	0	n/a	n/a	0.0	0	0	0	catFR2	0	R1039M
1917.08	0.838	1330038	REC_WORD	5.241	n/a	NARIZ	BodyParts	3	1	14	[0, 0, 0]	n/a	0	0	0	n/a	n/a	0.0	0	0	0	catFR2	0	R1039M
1917.918	1.375	1330457	REC_WORD	6.079	n/a	PIE	BodyParts	8	1	14	[0, 0, 0]	n/a	0	0	0	n/a	n/a	0.0	0	0	0	catFR2	0	R1039M
1919.293	14.77	1331144	REC_WORD	7.454	n/a	RODILLA	n/a	-999	0	14	[0, 0, 0]	n/a	0	0	0	n/a	n/a	0.0	0	0	0	catFR2	0	R1039M
1934.063	7.787	1338529	REC_WORD	22.224	n/a	NARIZ	BodyParts	3	1	14	[0, 0, 0]	n/a	0	0	0	n/a	n/a	0.0	0	0	0	catFR2	0	R1039M
1941.85	10.129	1342422	REC_END	n/a	n/a	n/a	n/a	-999	0	14	[0, 0, 0]	n/a	0	0	0	n/a	n/a	0.0	0	0	0	catFR2	0	R1039M
1951.979	10.0	1347487	COUNTDOWN_START	n/a	n/a	n/a	n/a	-999	0	15	[0, 0, 0]	n/a	0	0	0	n/a	n/a	0.0	0	0	0	catFR2	0	R1039M
1951.98	10.427	1347487	TRIAL	n/a	n/a	n/a	n/a	-999	0	15	[0, 0, 0]	n/a	0	0	0	n/a	n/a	0.0	0	0	0	catFR2	0	R1039M
1962.407	0.008	1352700	COUNTDOWN_END	n/a	n/a	n/a	n/a	-999	0	15	[0, 0, 0]	n/a	0	0	0	n/a	n/a	0.0	0	0	0	catFR2	0	R1039M
1962.415	1.6	1352704	ORIENT	n/a	n/a	n/a	n/a	-999	0	15	[0, 0, 0]	n/a	0	0	0	n/a	n/a	0.0	0	0	0	catFR2	0	R1039M
1966.116	1.6	1354555	WORD	n/a	wordpools/wordpool_categorized_SP.txt	ESTANTE	Furniture	1	1	15	[0, 0, 0]	n/a	0	0	0	n/a	n/a	0.0	0	0	0	catFR2	0	R1039M
1968.566	1.6	1355780	WORD	n/a	wordpools/wordpool_categorized_SP.txt	TOCADOR	Furniture	2	1	15	[0, 0, 0]	n/a	0	0	0	n/a	n/a	0.0	0	0	0	catFR2	0	R1039M
1971.033	1.6	1357013	WORD	n/a	wordpools/wordpool_categorized_SP.txt	LIMONADA	Beverages	3	0	15	[0, 0, 0]	n/a	0	0	0	n/a	n/a	0.0	0	0	0	catFR2	0	R1039M
1973.584	1.6	1358288	WORD	n/a	wordpools/wordpool_categorized_SP.txt	SODA	Beverages	4	0	15	[0, 0, 0]	n/a	0	0	0	n/a	n/a	0.0	0	0	0	catFR2	0	R1039M
1976.084	1.6	1359538	WORD	n/a	wordpools/wordpool_categorized_SP.txt	UVA	Fruit	5	0	15	[0, 0, 0]	n/a	0	0	0	n/a	n/a	0.0	0	0	0	catFR2	0	R1039M
1978.551	1.6	1360772	WORD	n/a	wordpools/wordpool_categorized_SP.txt	ARANDANO	Fruit	6	0	15	[0, 0, 0]	n/a	0	0	0	n/a	n/a	0.0	0	0	0	catFR2	0	R1039M
1981.002	1.6	1361997	WORD	n/a	wordpools/wordpool_categorized_SP.txt	CERVEZA	Beverages	7	0	15	[0, 0, 0]	n/a	0	0	0	n/a	n/a	0.0	0	0	0	catFR2	0	R1039M
1983.419	1.6	1363206	WORD	n/a	wordpools/wordpool_categorized_SP.txt	CAFE	Beverages	8	0	15	[0, 0, 0]	n/a	0	0	0	n/a	n/a	0.0	0	0	0	catFR2	0	R1039M
1986.003	1.6	1364498	WORD	n/a	wordpools/wordpool_categorized_SP.txt	GABINETE	Furniture	9	0	15	[0, 0, 0]	n/a	0	0	0	n/a	n/a	0.0	0	0	0	catFR2	0	R1039M
1988.553	1.6	1365773	WORD	n/a	wordpools/wordpool_categorized_SP.txt	SOFA	Furniture	10	0	15	[0, 0, 0]	n/a	0	0	0	n/a	n/a	0.0	0	0	0	catFR2	0	R1039M
1991.154	1.6	1367073	WORD	n/a	wordpools/wordpool_categorized_SP.txt	MANZANA	Fruit	11	0	15	[0, 0, 0]	n/a	0	0	0	n/a	n/a	0.0	0	0	0	catFR2	0	R1039M
1993.771	1.6	1368381	WORD	n/a	wordpools/wordpool_categorized_SP.txt	CIRUELA	Fruit	12	0	15	[0, 0, 0]	n/a	0	0	0	n/a	n/a	0.0	0	0	0	catFR2	0	R1039M
1995.388	0.001	1369190	DISTRACT_START	n/a	n/a	n/a	n/a	-999	0	15	[0, 0, 0]	n/a	0	0	0	n/a	n/a	0.0	0	0	0	catFR2	0	R1039M
1995.389	0.016	1369190	START	n/a	n/a	n/a	n/a	-999	0	15	[-999, -999, -999]	n/a	0	0	0	n/a	n/a	0.0	0	0	0	catFR2	0	R1039M
1995.405	15.653	1369198	PROB	15.619	n/a	n/a	n/a	-999	0	15	[9, 7, 8]	19	0	0	0	n/a	n/a	0.0	0	0	0	catFR2	0	R1039M
2011.058	8.349	1377024	PROB	8.349	n/a	n/a	n/a	-999	0	15	[6, 7, 7]	20	0	0	0	n/a	n/a	0.0	0	0	0	catFR2	0	R1039M
2019.407	0.019	1381199	STOP	n/a	n/a	n/a	n/a	-999	0	15	[-999, -999, -999]	n/a	0	0	0	n/a	n/a	0.0	0	0	0	catFR2	0	R1039M
2019.426	1.167	1381208	DISTRACT_END	n/a	n/a	n/a	n/a	-999	0	15	[0, 0, 0]	n/a	0	0	0	n/a	n/a	0.0	0	0	0	catFR2	0	R1039M
2020.593	0.32	1381792	REC_START	n/a	n/a	n/a	n/a	-999	0	15	[0, 0, 0]	n/a	0	0	0	n/a	n/a	0.0	0	0	0	catFR2	0	R1039M
2020.913	2.706	1381952	REC_WORD	0.32	n/a	ESTANTE	Furniture	1	1	15	[0, 0, 0]	n/a	0	0	0	n/a	n/a	0.0	0	0	0	catFR2	0	R1039M
2023.619	2.024	1383305	REC_WORD	3.026	n/a	TOCADOR	Furniture	2	1	15	[0, 0, 0]	n/a	0	0	0	n/a	n/a	0.0	0	0	0	catFR2	0	R1039M
2025.643	15.547	1384317	REC_WORD	5.05	n/a	BURO	n/a	-999	0	15	[0, 0, 0]	n/a	0	0	0	n/a	n/a	0.0	0	0	0	catFR2	0	R1039M
2041.19	5.341	1392090	REC_WORD_VV	20.597	n/a	<>	n/a	-999	0	15	[0, 0, 0]	n/a	0	0	0	n/a	n/a	0.0	0	0	0	catFR2	0	R1039M
2046.531	4.077	1394760	REC_WORD	25.938	n/a	CAJON	n/a	-999	0	15	[0, 0, 0]	n/a	0	0	0	n/a	n/a	0.0	0	0	0	catFR2	0	R1039M
2050.608	14.36	1396798	REC_END	n/a	n/a	n/a	n/a	-999	0	15	[0, 0, 0]	n/a	0	0	0	n/a	n/a	0.0	0	0	0	catFR2	0	R1039M
2064.968	0.0	1403978	TRIAL	n/a	n/a	n/a	n/a	-999	0	16	[0, 0, 0]	n/a	0	1	0	n/a	n/a	0.0	0	0	0	catFR2	0	R1039M
2064.968	10.0	1403978	COUNTDOWN_START	n/a	n/a	n/a	n/a	-999	0	16	[0, 0, 0]	n/a	0	1	0	n/a	n/a	0.0	0	0	0	catFR2	0	R1039M
2075.396	0.007	1409192	COUNTDOWN_END	n/a	n/a	n/a	n/a	-999	0	16	[0, 0, 0]	n/a	0	1	0	n/a	n/a	0.0	0	0	0	catFR2	0	R1039M
2075.403	1.6	1409195	ORIENT	n/a	n/a	n/a	n/a	-999	0	16	[0, 0, 0]	n/a	0	1	0	n/a	n/a	0.0	0	0	0	catFR2	0	R1039M
2079.02	4.6	1411004	STIM_ON	n/a	n/a	n/a	n/a	-999	0	16	[0, 0, 0]	n/a	1	1	4600	RFG5	RFG6	3000.0	50	230	300	catFR2	0	R1039M
2079.237	1.6	1411112	WORD	n/a	wordpools/wordpool_categorized_SP.txt	VIENTO	Weather	1	1	16	[0, 0, 0]	n/a	1	1	4600	RFG5	RFG6	3000.0	50	230	300	catFR2	0	R1039M
2081.621	1.6	1412304	WORD	n/a	wordpools/wordpool_categorized_SP.txt	TORMENTA	Weather	2	1	16	[0, 0, 0]	n/a	1	1	4600	RFG5	RFG6	3000.0	50	230	300	catFR2	0	R1039M
2084.205	1.6	1413596	WORD	n/a	wordpools/wordpool_categorized_SP.txt	HIERRO	Appliances	3	1	16	[0, 0, 0]	n/a	0	1	0	n/a	n/a	0.0	0	0	0	catFR2	0	R1039M
2086.756	1.6	1414871	WORD	n/a	wordpools/wordpool_categorized_SP.txt	MEZCLA	Appliances	4	0	16	[0, 0, 0]	n/a	0	1	0	n/a	n/a	0.0	0	0	0	catFR2	0	R1039M
2089.092	4.6	1416039	STIM_ON	n/a	n/a	n/a	n/a	-999	0	16	[0, 0, 0]	n/a	1	1	4600	RFG5	RFG6	3000.0	50	230	300	catFR2	0	R1039M
2089.306	1.6	1416146	WORD	n/a	wordpools/wordpool_categorized_SP.txt	ATICO	Building	5	1	16	[0, 0, 0]	n/a	1	1	4600	RFG5	RFG6	3000.0	50	230	300	catFR2	0	R1039M
2091.84	1.6	1417413	WORD	n/a	wordpools/wordpool_categorized_SP.txt	FUNDACION	Building	6	0	16	[0, 0, 0]	n/a	1	1	4600	RFG5	RFG6	3000.0	50	230	300	catFR2	0	R1039M
2094.457	1.6	1418722	WORD	n/a	wordpools/wordpool_categorized_SP.txt	NIEVE	Weather	7	0	16	[0, 0, 0]	n/a	0	1	0	n/a	n/a	0.0	0	0	0	catFR2	0	R1039M
2096.958	1.6	1419972	WORD	n/a	wordpools/wordpool_categorized_SP.txt	NIEBLA	Weather	8	0	16	[0, 0, 0]	n/a	0	1	0	n/a	n/a	0.0	0	0	0	catFR2	0	R1039M
2099.202	4.6	1421094	STIM_ON	n/a	n/a	n/a	n/a	-999	0	16	[0, 0, 0]	n/a	1	1	4600	RFG5	RFG6	3000.0	50	230	300	catFR2	0	R1039M
2099.408	1.6	1421197	WORD	n/a	wordpools/wordpool_categorized_SP.txt	ESCALERAS	Building	9	0	16	[0, 0, 0]	n/a	1	1	4600	RFG5	RFG6	3000.0	50	230	300	catFR2	0	R1039M
2101.809	1.6	1422398	WORD	n/a	wordpools/wordpool_categorized_SP.txt	HABITACION	Building	10	0	16	[0, 0, 0]	n/a	1	1	4600	RFG5	RFG6	3000.0	50	230	300	catFR2	0	R1039M
2104.259	1.6	1423623	WORD	n/a	wordpools/wordpool_categorized_SP.txt	LAVAPLATOS	Appliances	11	0	16	[0, 0, 0]	n/a	0	1	0	n/a	n/a	0.0	0	0	0	catFR2	0	R1039M
2106.793	1.6	1424889	WORD	n/a	wordpools/wordpool_categorized_SP.txt	ASPIRADORA	Appliances	12	0	16	[0, 0, 0]	n/a	0	1	0	n/a	n/a	0.0	0	0	0	catFR2	0	R1039M
2108.41	0.001	1425698	DISTRACT_START	n/a	n/a	n/a	n/a	-999	0	16	[0, 0, 0]	n/a	0	1	0	n/a	n/a	0.0	0	0	0	catFR2	0	R1039M
2108.411	0.015	1425698	START	n/a	n/a	n/a	n/a	-999	0	16	[-999, -999, -999]	n/a	0	1	0	n/a	n/a	0.0	0	0	0	catFR2	0	R1039M
2108.426	6.785	1425706	PROB	6.75	n/a	n/a	n/a	-999	0	16	[9, 2, 9]	20	0	1	0	n/a	n/a	0.0	0	0	0	catFR2	0	R1039M
2115.211	4.768	1429098	PROB	4.74	n/a	n/a	n/a	-999	0	16	[7, 7, 1]	15	0	1	0	n/a	n/a	0.0	0	0	0	catFR2	0	R1039M
2119.979	3.966	1431482	PROB	3.94	n/a	n/a	n/a	-999	0	16	[1, 6, 2]	9	0	1	0	n/a	n/a	0.0	0	0	0	catFR2	0	R1039M
2123.945	11.919	1433465	PROB	11.919	n/a	n/a	n/a	-999	0	16	[9, 7, 5]	21	0	1	0	n/a	n/a	0.0	0	0	0	catFR2	0	R1039M
2135.864	0.018	1439424	STOP	n/a	n/a	n/a	n/a	-999	0	16	[-999, -999, -999]	n/a	0	1	0	n/a	n/a	0.0	0	0	0	catFR2	0	R1039M
2135.882	1.074	1439433	DISTRACT_END	n/a	n/a	n/a	n/a	-999	0	16	[0, 0, 0]	n/a	0	1	0	n/a	n/a	0.0	0	0	0	catFR2	0	R1039M
2136.956	2.387	1439970	REC_START	n/a	n/a	n/a	n/a	-999	0	16	[0, 0, 0]	n/a	0	1	0	n/a	n/a	0.0	0	0	0	catFR2	0	R1039M
2139.343	2.595	1441164	REC_WORD	2.387	n/a	ATICO	Building	5	1	16	[0, 0, 0]	n/a	0	1	0	n/a	n/a	0.0	0	0	0	catFR2	0	R1039M
2141.938	4.81	1442461	REC_WORD	4.982	n/a	UBALAR	n/a	-999	0	16	[0, 0, 0]	n/a	0	1	0	n/a	n/a	0.0	0	0	0	catFR2	0	R1039M
2146.748	2.181	1444866	REC_WORD	9.792	n/a	VIENTO	Weather	1	1	16	[0, 0, 0]	n/a	0	1	0	n/a	n/a	0.0	0	0	0	catFR2	0	R1039M
2148.929	6.684	1445956	REC_WORD	11.973	n/a	TORMENTA	Weather	2	1	16	[0, 0, 0]	n/a	0	1	0	n/a	n/a	0.0	0	0	0	catFR2	0	R1039M
2155.613	9.014	1449298	REC_WORD	18.657	n/a	HUMEDAD	n/a	-999	0	16	[0, 0, 0]	n/a	0	1	0	n/a	n/a	0.0	0	0	0	catFR2	0	R1039M
2164.627	2.334	1453805	REC_WORD	27.671	n/a	HIERRO	Appliances	3	1	16	[0, 0, 0]	n/a	0	1	0	n/a	n/a	0.0	0	0	0	catFR2	0	R1039M
2166.961	18.946	1454972	REC_END	n/a	n/a	n/a	n/a	-999	0	16	[0, 0, 0]	n/a	0	1	0	n/a	n/a	0.0	0	0	0	catFR2	0	R1039M
2185.907	0.0	1464444	TRIAL	n/a	n/a	n/a	n/a	-999	0	17	[0, 0, 0]	n/a	0	1	0	n/a	n/a	0.0	0	0	0	catFR2	0	R1039M
2185.907	10.0	1464444	COUNTDOWN_START	n/a	n/a	n/a	n/a	-999	0	17	[0, 0, 0]	n/a	0	1	0	n/a	n/a	0.0	0	0	0	catFR2	0	R1039M
2196.335	0.009	1469658	COUNTDOWN_END	n/a	n/a	n/a	n/a	-999	0	17	[0, 0, 0]	n/a	0	1	0	n/a	n/a	0.0	0	0	0	catFR2	0	R1039M
2196.344	1.6	1469663	ORIENT	n/a	n/a	n/a	n/a	-999	0	17	[0, 0, 0]	n/a	0	1	0	n/a	n/a	0.0	0	0	0	catFR2	0	R1039M
2199.844	1.6	1471412	WORD	n/a	wordpools/wordpool_categorized_SP.txt	TORO	FarmAnimals	1	0	17	[0, 0, 0]	n/a	0	1	0	n/a	n/a	0.0	0	0	0	catFR2	0	R1039M
2202.311	1.6	1472646	WORD	n/a	wordpools/wordpool_categorized_SP.txt	CERDO	FarmAnimals	2	1	17	[0, 0, 0]	n/a	0	1	0	n/a	n/a	0.0	0	0	0	catFR2	0	R1039M
2204.697	4.6	1473839	STIM_ON	n/a	n/a	n/a	n/a	-999	0	17	[0, 0, 0]	n/a	1	1	4600	RFG5	RFG6	3000.0	50	230	300	catFR2	0	R1039M
2204.911	1.6	1473946	WORD	n/a	wordpools/wordpool_categorized_SP.txt	CEBRA	Zoo	3	0	17	[0, 0, 0]	n/a	1	1	4600	RFG5	RFG6	3000.0	50	230	300	catFR2	0	R1039M
2207.396	1.6	1475188	WORD	n/a	wordpools/wordpool_categorized_SP.txt	CHIMPANCE	Zoo	4	1	17	[0, 0, 0]	n/a	1	1	4600	RFG5	RFG6	3000.0	50	230	300	catFR2	0	R1039M
2210.013	1.6	1476497	WORD	n/a	wordpools/wordpool_categorized_SP.txt	CHAQUETA	Clothing	5	0	17	[0, 0, 0]	n/a	0	1	0	n/a	n/a	0.0	0	0	0	catFR2	0	R1039M
2212.547	1.6	1477764	WORD	n/a	wordpools/wordpool_categorized_SP.txt	FALDA	Clothing	6	0	17	[0, 0, 0]	n/a	0	1	0	n/a	n/a	0.0	0	0	0	catFR2	0	R1039M
2214.748	4.6	1478864	STIM_ON	n/a	n/a	n/a	n/a	-999	0	17	[0, 0, 0]	n/a	1	1	4600	RFG5	RFG6	3000.0	50	230	300	catFR2	0	R1039M
2214.964	1.6	1478972	WORD	n/a	wordpools/wordpool_categorized_SP.txt	JIRAFA	Zoo	7	0	17	[0, 0, 0]	n/a	1	1	4600	RFG5	RFG6	3000.0	50	230	300	catFR2	0	R1039M
2217.498	1.6	1480239	WORD	n/a	wordpools/wordpool_categorized_SP.txt	GORILA	Zoo	8	0	17	[0, 0, 0]	n/a	1	1	4600	RFG5	RFG6	3000.0	50	230	300	catFR2	0	R1039M
2219.998	1.6	1481489	WORD	n/a	wordpools/wordpool_categorized_SP.txt	GALLO	FarmAnimals	9	1	17	[0, 0, 0]	n/a	0	1	0	n/a	n/a	0.0	0	0	0	catFR2	0	R1039M
2222.432	1.6	1482706	WORD	n/a	wordpools/wordpool_categorized_SP.txt	POLLO	FarmAnimals	10	1	17	[0, 0, 0]	n/a	0	1	0	n/a	n/a	0.0	0	0	0	catFR2	0	R1039M
2224.783	4.6	1483881	STIM_ON	n/a	n/a	n/a	n/a	-999	0	17	[0, 0, 0]	n/a	1	1	4600	RFG5	RFG6	3000.0	50	230	300	catFR2	0	R1039M
2224.999	1.6	1483989	WORD	n/a	wordpools/wordpool_categorized_SP.txt	VESTIDO	Clothing	11	0	17	[0, 0, 0]	n/a	1	1	4600	RFG5	RFG6	3000.0	50	230	300	catFR2	0	R1039M
2227.433	1.6	1485206	WORD	n/a	wordpools/wordpool_categorized_SP.txt	SACO	Clothing	12	0	17	[0, 0, 0]	n/a	1	1	4600	RFG5	RFG6	3000.0	50	230	300	catFR2	0	R1039M
2229.05	0.001	1486015	DISTRACT_START	n/a	n/a	n/a	n/a	-999	0	17	[0, 0, 0]	n/a	0	1	0	n/a	n/a	0.0	0	0	0	catFR2	0	R1039M
2229.051	0.016	1486015	START	n/a	n/a	n/a	n/a	-999	0	17	[-999, -999, -999]	n/a	0	1	0	n/a	n/a	0.0	0	0	0	catFR2	0	R1039M
2229.067	9.601	1486023	PROB	9.572	n/a	n/a	n/a	-999	0	17	[2, 7, 5]	14	0	1	0	n/a	n/a	0.0	0	0	0	catFR2	0	R1039M
2238.668	6.452	1490823	PROB	6.428	n/a	n/a	n/a	-999	0	17	[1, 7, 8]	16	0	1	0	n/a	n/a	0.0	0	0	0	catFR2	0	R1039M
2245.12	8.688	1494049	PROB	8.688	n/a	n/a	n/a	-999	0	17	[5, 6, 9]	20	0	1	0	n/a	n/a	0.0	0	0	0	catFR2	0	R1039M
2253.808	0.013	1498393	STOP	n/a	n/a	n/a	n/a	-999	0	17	[-999, -999, -999]	n/a	0	1	0	n/a	n/a	0.0	0	0	0	catFR2	0	R1039M
2253.821	1.168	1498400	DISTRACT_END	n/a	n/a	n/a	n/a	-999	0	17	[0, 0, 0]	n/a	0	1	0	n/a	n/a	0.0	0	0	0	catFR2	0	R1039M
2254.989	0.485	1498983	REC_START	n/a	n/a	n/a	n/a	-999	0	17	[0, 0, 0]	n/a	0	1	0	n/a	n/a	0.0	0	0	0	catFR2	0	R1039M
2255.474	0.82	1499226	REC_WORD	0.485	n/a	CERDO	FarmAnimals	2	1	17	[0, 0, 0]	n/a	0	1	0	n/a	n/a	0.0	0	0	0	catFR2	0	R1039M
2256.294	2.288	1499636	REC_WORD	1.305	n/a	POLLO	FarmAnimals	10	1	17	[0, 0, 0]	n/a	0	1	0	n/a	n/a	0.0	0	0	0	catFR2	0	R1039M
2258.582	8.18	1500780	REC_WORD	3.593	n/a	CHIMPANCE	Zoo	4	1	17	[0, 0, 0]	n/a	0	1	0	n/a	n/a	0.0	0	0	0	catFR2	0	R1039M
2266.762	7.262	1504870	REC_WORD	11.773	n/a	GALLO	FarmAnimals	9	1	17	[0, 0, 0]	n/a	0	1	0	n/a	n/a	0.0	0	0	0	catFR2	0	R1039M
2274.024	7.931	-1	REC_WORD	19.035	n/a	MONO	n/a	-999	0	17	[0, 0, 0]	n/a	0	1	0	n/a	n/a	0.0	0	0	0	catFR2	0	R1039M
2281.955	3.045	-1	REC_WORD_VV	26.966	n/a	<>	n/a	-999	0	17	[0, 0, 0]	n/a	0	1	0	n/a	n/a	0.0	0	0	0	catFR2	0	R1039M
2285.0	45.203	-1	REC_END	n/a	n/a	n/a	n/a	-999	0	17	[0, 0, 0]	n/a	0	1	0	n/a	n/a	0.0	0	0	0	catFR2	0	R1039M
2330.203	0.0	-1	TRIAL	n/a	n/a	n/a	n/a	-999	0	18	[0, 0, 0]	n/a	0	1	0	n/a	n/a	0.0	0	0	0	catFR2	0	R1039M
2330.203	10.0	-1	COUNTDOWN_START	n/a	n/a	n/a	n/a	-999	0	18	[0, 0, 0]	n/a	0	1	0	n/a	n/a	0.0	0	0	0	catFR2	0	R1039M
